File: notebooks/experimental_tests/results/carbon_tensile_tests/F1.txt
Zeit  1 - Standardmessrate [s]	Kraft [kN]	Weg [mm]	DD1 [Prom]	PMX_1 CH 3-2 [µm/m]	PMX_1 CH 3-3 [mm]	PMX_1 CH 3-4 [mm]
0	-0,1387	0,000	0,000	-1000000	-1000000	-1000000
0,6000	-0,1383	0,00014	0,000	-1000000	-1000000	-1000000
1,200	-0,1383	-0,00012	0,000	-1000000	-1000000	-1000000
1,800	-0,1387	-0,00018	0,000	-1000000	-1000000	-1000000
2,400	-0,1387	-0,00017	0,000	-1000000	-1000000	-1000000
3,000	-0,1385	0,000	0,000	-1000000	-1000000	-1000000
3,600	-0,1388	0,00031	0,000	-1000000	-1000000	-1000000
4,200	-0,1384	0,000	0,00014	-1000000	-1000000	-1000000
4,800	-0,1383	0,00028	0,000	-1000000	-1000000	-1000000
5,400	-0,1385	0,00038	0,000	-1000000	-1000000	-1000000
6,000	-0,1381	0,000	0,000	-1000000	-1000000	-1000000
6,600	-0,1382	0,00023	0,00015	-1000000	-1000000	-1000000
7,200	-0,1386	0,00022	0,00011	-1000000	-1000000	-1000000
7,800	-0,1384	0,00032	0,000	-1000000	-1000000	-1000000
8,400	-0,1386	0,00025	0,000	-1000000	-1000000	-1000000
9,000	-0,1383	0,00055	0,00012	-1000000	-1000000	-1000000
9,600	-0,1384	0,00056	0,000	-1000000	-1000000	-1000000
10,20	-0,1384	0,00048	0,00018	-1000000	-1000000	-1000000
10,80	-0,1385	0,00064	0,000	-1000000	-1000000	-1000000
11,40	-0,1386	0,000	0,00022	-1000000	-1000000	-1000000
12,00	-0,1386	0,000	0,00014	-1000000	-1000000	-1000000
12,60	-0,1388	0,00063	0,000	-1000000	-1000000	-1000000
13,20	-0,1389	0,000	0,00014	-1000000	-1000000	-1000000
13,80	-0,1387	0,00022	0,00019	-1000000	-1000000	-1000000
14,40	-0,1386	0,00039	0,00013	-1000000	-1000000	-1000000
15,00	-0,1386	0,00050	0,000	-1000000	-1000000	-1000000
15,60	-0,1387	-0,00017	0,000	-1000000	-1000000	-1000000
16,20	-0,1389	0,00021	0,000	-1000000	-1000000	-1000000
16,80	-0,1386	0,00019	0,00013	-1000000	-1000000	-1000000
17,40	-0,1386	-0,00015	0,000	-1000000	-1000000	-1000000
18,00	-0,1386	0,00065	0,00015	-1000000	-1000000	-1000000
18,60	-0,1388	0,00056	0,00015	-1000000	-1000000	-1000000
19,20	-0,1387	0,00078	0,00014	-1000000	-1000000	-1000000
19,80	-0,1387	0,00038	0,00011	-1000000	-1000000	-1000000
20,40	-0,1385	0,000	0,00017	-1000000	-1000000	-1000000
21,00	-0,1385	0,00034	0,00011	-1000000	-1000000	-1000000
21,60	-0,1383	0,000	0,00012	-1000000	-1000000	-1000000
22,20	-0,1385	0,00030	0,00010	-1000000	-1000000	-1000000
22,80	-0,1382	0,00069	0,00015	-1000000	-1000000	-1000000
23,40	-0,1384	0,00015	0,000	-1000000	-1000000	-1000000
24,00	-0,1389	0,00095	0,00019	-1000000	-1000000	-1000000
24,60	-0,1388	0,00019	0,00016	-1000000	-1000000	-1000000
25,20	-0,1385	0,00051	0,00017	-1000000	-1000000	-1000000
25,80	-0,1388	0,00021	0,00013	-1000000	-1000000	-1000000
26,40	-0,1388	0,00010	0,00014	-1000000	-1000000	-1000000
27,00	-0,1387	0,00024	0,00016	-1000000	-1000000	-1000000
27,60	-0,1390	0,000	0,00015	-1000000	-1000000	-1000000
28,20	-0,1390	0,00028	0,00018	-1000000	-1000000	-1000000
28,80	-0,1387	0,000	0,000	-1000000	-1000000	-1000000
29,40	-0,1387	0,00088	-0,00060	-1000000	-1000000	-1000000
30,00	-0,1453	0,01146	-0,01180	-1000000	-1000000	-1000000
30,60	-0,1632	0,02120	-0,03532	-1000000	-1000000	-1000000
31,20	-0,1804	0,03179	-0,05805	-1000000	-1000000	-1000000
31,80	-0,1969	0,04090	-0,07951	-1000000	-1000000	-1000000
32,40	-0,2087	0,05201	-0,09532	-1000000	-1000000	-1000000
33,00	-0,2215	0,06111	-0,1119	-1000000	-1000000	-1000000
33,60	-0,2323	0,07188	-0,1261	-1000000	-1000000	-1000000
34,20	-0,2446	0,08157	-0,1348	-1000000	-1000000	-1000000
34,80	-0,2559	0,09200	-0,1437	-1000000	-1000000	-1000000
35,40	-0,2677	0,1017	-0,1533	-1000000	-1000000	-1000000
36,00	-0,2769	0,1114	-0,1619	-1000000	-1000000	-1000000
36,60	-0,2803	0,1217	-0,1624	-1000000	-1000000	-1000000
37,20	-0,2807	0,1314	-0,1627	-1000000	-1000000	-1000000
37,80	-0,2810	0,1418	-0,1631	-1000000	-1000000	-1000000
38,40	-0,2811	0,1506	-0,1632	-1000000	-1000000	-1000000
39,00	-0,2829	0,1623	-0,1635	-1000000	-1000000	-1000000
39,60	-0,2847	0,1714	-0,1638	-1000000	-1000000	-1000000
40,20	-0,2849	0,1819	-0,1644	-1000000	-1000000	-1000000
40,80	-0,2848	0,1918	-0,1650	-1000000	-1000000	-1000000
41,40	-0,2851	0,2016	-0,1658	-1000000	-1000000	-1000000
42,00	-0,2879	0,2115	-0,1687	-1000000	-1000000	-1000000
42,60	-0,2927	0,2215	-0,1748	-1000000	-1000000	-1000000
43,20	-0,2945	0,2322	-0,1767	-1000000	-1000000	-1000000
43,80	-0,3011	0,2417	-0,1827	-1000000	-1000000	-1000000
44,40	-0,3051	0,2522	-0,1880	-1000000	-1000000	-1000000
45,00	-0,3101	0,2610	-0,1942	-1000000	-1000000	-1000000
45,60	-0,3138	0,2718	-0,1970	-1000000	-1000000	-1000000
46,20	-0,3175	0,2812	-0,1995	-1000000	-1000000	-1000000
46,80	-0,3178	0,2918	-0,2013	-1000000	-1000000	-1000000
47,40	-0,3216	0,3018	-0,2034	-1000000	-1000000	-1000000
48,00	-0,3220	0,3116	-0,2043	-1000000	-1000000	-1000000
48,60	-0,3258	0,3223	-0,2062	-1000000	-1000000	-1000000
49,20	-0,3260	0,3317	-0,2078	-1000000	-1000000	-1000000
49,80	-0,3268	0,3425	-0,2091	-1000000	-1000000	-1000000
50,40	-0,3300	0,3516	-0,2105	-1000000	-1000000	-1000000
51,00	-0,3300	0,3622	-0,2119	-1000000	-1000000	-1000000
51,60	-0,3318	0,3719	-0,2135	-1000000	-1000000	-1000000
52,20	-0,3341	0,3825	-0,2174	-1000000	-1000000	-1000000
52,80	-0,3381	0,3914	-0,2224	-1000000	-1000000	-1000000
53,40	-0,3422	0,4017	-0,2274	-1000000	-1000000	-1000000
54,00	-0,3486	0,4115	-0,2343	-1000000	-1000000	-1000000
54,60	-0,3561	0,4217	-0,2439	-1000000	-1000000	-1000000
55,20	-0,3652	0,4317	-0,2537	-1000000	-1000000	-1000000
55,80	-0,3758	0,4415	-0,2658	-1000000	-1000000	-1000000
56,40	-0,3878	0,4523	-0,2787	-1000000	-1000000	-1000000
57,00	-0,3985	0,4616	-0,2898	-1000000	-1000000	-1000000
57,60	-0,4134	0,4719	-0,3056	-1000000	-1000000	-1000000
58,20	-0,4288	0,4816	-0,3221	-1000000	-1000000	-1000000
58,80	-0,4328	0,4920	-0,3252	-1000000	-1000000	-1000000
59,40	-0,4448	0,5018	-0,3390	-1000000	-1000000	-1000000
60,00	-0,4568	0,5121	-0,3530	-1000000	-1000000	-1000000
60,60	-0,4707	0,5214	-0,3680	-1000000	-1000000	-1000000
61,20	-0,4874	0,5317	-0,3863	-1000000	-1000000	-1000000
61,80	-0,5026	0,5417	-0,4046	-1000000	-1000000	-1000000
62,40	-0,5193	0,5518	-0,4226	-1000000	-1000000	-1000000
63,00	-0,5355	0,5615	-0,4413	-1000000	-1000000	-1000000
63,60	-0,5518	0,5710	-0,4603	-1000000	-1000000	-1000000
64,20	-0,5697	0,5823	-0,4796	-1000000	-1000000	-1000000
64,80	-0,5871	0,5917	-0,4993	-1000000	-1000000	-1000000
65,40	-0,6041	0,6022	-0,5187	-1000000	-1000000	-1000000
66,00	-0,6211	0,6114	-0,5382	-1000000	-1000000	-1000000
66,60	-0,6362	0,6219	-0,5551	-1000000	-1000000	-1000000
67,20	-0,6477	0,6317	-0,5672	-1000000	-1000000	-1000000
67,80	-0,6617	0,6418	-0,5842	-1000000	-1000000	-1000000
68,40	-0,6765	0,6517	-0,6012	-1000000	-1000000	-1000000
69,00	-0,6898	0,6618	-0,6165	-1000000	-1000000	-1000000
69,60	-0,7045	0,6721	-0,6338	-1000000	-1000000	-1000000
70,20	-0,7199	0,6818	-0,6517	-1000000	-1000000	-1000000
70,80	-0,7368	0,6919	-0,6708	-1000000	-1000000	-1000000
71,40	-0,7524	0,7014	-0,6893	-1000000	-1000000	-1000000
72,00	-0,7692	0,7121	-0,7088	-1000000	-1000000	-1000000
72,60	-0,7874	0,7219	-0,7294	-1000000	-1000000	-1000000
73,20	-0,8050	0,7320	-0,7494	-1000000	-1000000	-1000000
73,80	-0,8048	0,7414	-0,7485	-1000000	-1000000	-1000000
74,40	-0,8211	0,7516	-0,7665	-1000000	-1000000	-1000000
75,00	-0,8397	0,7610	-0,7875	-1000000	-1000000	-1000000
75,60	-0,8572	0,7714	-0,8085	-1000000	-1000000	-1000000
76,20	-0,8752	0,7817	-0,8296	-1000000	-1000000	-1000000
76,80	-0,8936	0,7916	-0,8497	-1000000	-1000000	-1000000
77,40	-0,9108	0,8018	-0,8707	-1000000	-1000000	-1000000
78,00	-0,9278	0,8117	-0,8913	-1000000	-1000000	-1000000
78,60	-0,9468	0,8206	-0,9123	-1000000	-1000000	-1000000
79,20	-0,9647	0,8303	-0,9334	-1000000	-1000000	-1000000
79,80	-0,9836	0,8400	-0,9552	-1000000	-1000000	-1000000
80,40	-1,001	0,8505	-0,9773	-1000000	-1000000	-1000000
81,00	-1,021	0,8606	-1,000	-1000000	-1000000	-1000000
81,60	-1,041	0,8704	-1,023	-1000000	-1000000	-1000000
82,20	-1,061	0,8807	-1,047	-1000000	-1000000	-1000000
82,80	-1,081	0,8905	-1,071	-1000000	-1000000	-1000000
83,40	-1,101	0,9007	-1,096	-1000000	-1000000	-1000000
84,00	-1,122	0,9108	-1,121	-1000000	-1000000	-1000000
84,60	-1,144	0,9199	-1,147	-1000000	-1000000	-1000000
85,20	-1,165	0,9306	-1,172	-1000000	-1000000	-1000000
85,80	-1,186	0,9398	-1,198	-1000000	-1000000	-1000000
86,40	-1,209	0,9503	-1,224	-1000000	-1000000	-1000000
87,00	-1,230	0,9599	-1,250	-1000000	-1000000	-1000000
87,60	-1,252	0,9699	-1,277	-1000000	-1000000	-1000000
88,20	-1,273	0,9798	-1,303	-1000000	-1000000	-1000000
88,80	-1,296	0,9903	-1,329	-1000000	-1000000	-1000000
89,40	-1,318	1,000	-1,355	-1000000	-1000000	-1000000
90,00	-1,340	1,010	-1,382	-1000000	-1000000	-1000000
90,60	-1,354	1,020	-1,397	-1000000	-1000000	-1000000
91,20	-1,368	1,030	-1,414	-1000000	-1000000	-1000000
91,80	-1,391	1,040	-1,443	-1000000	-1000000	-1000000
92,40	-1,414	1,050	-1,470	-1000000	-1000000	-1000000
93,00	-1,437	1,061	-1,498	-1000000	-1000000	-1000000
93,60	-1,460	1,070	-1,526	-1000000	-1000000	-1000000
94,20	-1,483	1,081	-1,553	-1000000	-1000000	-1000000
94,80	-1,505	1,090	-1,580	-1000000	-1000000	-1000000
95,40	-1,529	1,101	-1,607	-1000000	-1000000	-1000000
96,00	-1,552	1,110	-1,635	-1000000	-1000000	-1000000
96,60	-1,575	1,121	-1,663	-1000000	-1000000	-1000000
97,20	-1,598	1,130	-1,690	-1000000	-1000000	-1000000
97,80	-1,621	1,141	-1,718	-1000000	-1000000	-1000000
98,40	-1,621	1,150	-1,717	-1000000	-1000000	-1000000
99,00	-1,646	1,161	-1,747	-1000000	-1000000	-1000000
99,60	-1,670	1,171	-1,776	-1000000	-1000000	-1000000
100,20	-1,693	1,181	-1,804	-1000000	-1000000	-1000000
100,80	-1,718	1,191	-1,833	-1000000	-1000000	-1000000
101,40	-1,742	1,200	-1,861	-1000000	-1000000	-1000000
102,00	-1,766	1,211	-1,890	-1000000	-1000000	-1000000
102,60	-1,790	1,220	-1,919	-1000000	-1000000	-1000000
103,20	-1,815	1,231	-1,948	-1000000	-1000000	-1000000
103,80	-1,840	1,241	-1,978	-1000000	-1000000	-1000000
104,40	-1,864	1,250	-2,007	-1000000	-1000000	-1000000
105,00	-1,889	1,260	-2,036	-1000000	-1000000	-1000000
105,60	-1,913	1,270	-2,065	-1000000	-1000000	-1000000
106,20	-1,938	1,280	-2,094	-1000000	-1000000	-1000000
106,80	-1,961	1,290	-2,123	-1000000	-1000000	-1000000
107,40	-1,986	1,301	-2,152	-1000000	-1000000	-1000000
108,00	-2,010	1,310	-2,181	-1000000	-1000000	-1000000
108,60	-2,034	1,321	-2,210	-1000000	-1000000	-1000000
109,20	-2,033	1,330	-2,208	-1000000	-1000000	-1000000
109,80	-2,059	1,342	-2,238	-1000000	-1000000	-1000000
110,40	-2,084	1,351	-2,269	-1000000	-1000000	-1000000
111,00	-2,110	1,361	-2,299	-1000000	-1000000	-1000000
111,60	-2,134	1,371	-2,328	-1000000	-1000000	-1000000
112,20	-2,160	1,381	-2,358	-1000000	-1000000	-1000000
112,80	-2,185	1,391	-2,387	-1000000	-1000000	-1000000
113,40	-2,211	1,401	-2,417	-1000000	-1000000	-1000000
114,00	-2,235	1,411	-2,447	-1000000	-1000000	-1000000
114,60	-2,261	1,421	-2,477	-1000000	-1000000	-1000000
115,20	-2,286	1,432	-2,507	-1000000	-1000000	-1000000
115,80	-2,312	1,441	-2,537	-1000000	-1000000	-1000000
116,40	-2,337	1,451	-2,567	-1000000	-1000000	-1000000
117,00	-2,362	1,461	-2,597	-1000000	-1000000	-1000000
117,60	-2,388	1,471	-2,626	-1000000	-1000000	-1000000
118,20	-2,412	1,481	-2,656	-1000000	-1000000	-1000000
118,80	-2,438	1,490	-2,685	-1000000	-1000000	-1000000
119,40	-2,463	1,501	-2,715	-1000000	-1000000	-1000000
120,00	-2,488	1,510	-2,745	-1000000	-1000000	-1000000
120,60	-2,514	1,521	-2,775	-1000000	-1000000	-1000000
121,20	-2,539	1,531	-2,804	-1000000	-1000000	-1000000
121,80	-2,564	1,541	-2,834	-1000000	-1000000	-1000000
122,40	-2,590	1,551	-2,864	-1000000	-1000000	-1000000
123,00	-2,615	1,561	-2,894	-1000000	-1000000	-1000000
123,60	-2,640	1,571	-2,923	-1000000	-1000000	-1000000
124,20	-2,654	1,581	-2,937	-1000000	-1000000	-1000000
124,80	-2,666	1,591	-2,953	-1000000	-1000000	-1000000
125,40	-2,692	1,600	-2,983	-1000000	-1000000	-1000000
126,00	-2,718	1,611	-3,014	-1000000	-1000000	-1000000
126,60	-2,744	1,621	-3,044	-1000000	-1000000	-1000000
127,20	-2,770	1,631	-3,075	-1000000	-1000000	-1000000
127,80	-2,796	1,641	-3,105	-1000000	-1000000	-1000000
128,40	-2,822	1,651	-3,135	-1000000	-1000000	-1000000
129,00	-2,848	1,660	-3,165	-1000000	-1000000	-1000000
129,60	-2,873	1,671	-3,196	-1000000	-1000000	-1000000
130,20	-2,899	1,681	-3,225	-1000000	-1000000	-1000000
130,80	-2,924	1,690	-3,255	-1000000	-1000000	-1000000
131,40	-2,949	1,701	-3,285	-1000000	-1000000	-1000000
132,00	-2,976	1,711	-3,315	-1000000	-1000000	-1000000
132,60	-3,002	1,721	-3,344	-1000000	-1000000	-1000000
133,20	-3,026	1,731	-3,375	-1000000	-1000000	-1000000
133,80	-3,052	1,741	-3,405	-1000000	-1000000	-1000000
134,40	-3,078	1,750	-3,435	-1000000	-1000000	-1000000
135,00	-3,105	1,761	-3,465	-1000000	-1000000	-1000000
135,60	-3,131	1,771	-3,495	-1000000	-1000000	-1000000
136,20	-3,156	1,781	-3,525	-1000000	-1000000	-1000000
136,80	-3,182	1,791	-3,555	-1000000	-1000000	-1000000
137,40	-3,207	1,801	-3,585	-1000000	-1000000	-1000000
138,00	-3,234	1,811	-3,615	-1000000	-1000000	-1000000
138,60	-3,260	1,820	-3,645	-1000000	-1000000	-1000000
139,20	-3,273	1,830	-3,660	-1000000	-1000000	-1000000
139,80	-3,300	1,841	-3,691	-1000000	-1000000	-1000000
140,40	-3,325	1,850	-3,722	-1000000	-1000000	-1000000
141,00	-3,352	1,860	-3,752	-1000000	-1000000	-1000000
141,60	-3,378	1,871	-3,782	-1000000	-1000000	-1000000
142,20	-3,404	1,881	-3,812	-1000000	-1000000	-1000000
142,80	-3,430	1,891	-3,841	-1000000	-1000000	-1000000
143,40	-3,451	1,900	-3,866	-1000000	-1000000	-1000000
144,00	-3,460	1,911	-3,877	-1000000	-1000000	-1000000
144,60	-3,486	1,920	-3,907	-1000000	-1000000	-1000000
145,20	-3,512	1,930	-3,938	-1000000	-1000000	-1000000
145,80	-3,538	1,939	-3,969	-1000000	-1000000	-1000000
146,40	-3,565	1,951	-4,000	-1000000	-1000000	-1000000
147,00	-3,592	1,960	-4,030	-1000000	-1000000	-1000000
147,60	-3,618	1,970	-4,061	-1000000	-1000000	-1000000
148,20	-3,644	1,980	-4,091	-1000000	-1000000	-1000000
148,80	-3,671	1,990	-4,121	-1000000	-1000000	-1000000
149,40	-3,696	2,000	-4,152	-1000000	-1000000	-1000000
150,00	-3,723	2,009	-4,182	-1000000	-1000000	-1000000
150,60	-3,750	2,020	-4,213	-1000000	-1000000	-1000000
151,20	-3,777	2,030	-4,244	-1000000	-1000000	-1000000
151,80	-3,804	2,040	-4,274	-1000000	-1000000	-1000000
152,40	-3,830	2,050	-4,305	-1000000	-1000000	-1000000
153,00	-3,856	2,060	-4,336	-1000000	-1000000	-1000000
153,60	-3,883	2,070	-4,366	-1000000	-1000000	-1000000
154,20	-3,910	2,080	-4,397	-1000000	-1000000	-1000000
154,80	-3,937	2,090	-4,427	-1000000	-1000000	-1000000
155,40	-3,962	2,100	-4,457	-1000000	-1000000	-1000000
156,00	-3,989	2,110	-4,488	-1000000	-1000000	-1000000
156,60	-4,015	2,119	-4,519	-1000000	-1000000	-1000000
157,20	-4,043	2,130	-4,549	-1000000	-1000000	-1000000
157,80	-4,070	2,139	-4,580	-1000000	-1000000	-1000000
158,40	-4,095	2,150	-4,610	-1000000	-1000000	-1000000
159,00	-4,122	2,160	-4,641	-1000000	-1000000	-1000000
159,60	-4,148	2,169	-4,671	-1000000	-1000000	-1000000
160,20	-4,175	2,180	-4,702	-1000000	-1000000	-1000000
160,80	-4,202	2,189	-4,732	-1000000	-1000000	-1000000
161,40	-4,229	2,199	-4,762	-1000000	-1000000	-1000000
162,00	-4,255	2,209	-4,793	-1000000	-1000000	-1000000
162,60	-4,282	2,220	-4,824	-1000000	-1000000	-1000000
163,20	-4,308	2,229	-4,854	-1000000	-1000000	-1000000
163,80	-4,336	2,240	-4,884	-1000000	-1000000	-1000000
164,40	-4,361	2,250	-4,914	-1000000	-1000000	-1000000
165,00	-4,369	2,260	-4,923	-1000000	-1000000	-1000000
165,60	-4,395	2,269	-4,952	-1000000	-1000000	-1000000
166,20	-4,422	2,279	-4,982	-1000000	-1000000	-1000000
166,80	-4,448	2,289	-5,013	-1000000	-1000000	-1000000
167,40	-4,476	2,300	-5,044	-1000000	-1000000	-1000000
168,00	-4,502	2,310	-5,075	-1000000	-1000000	-1000000
168,60	-4,530	2,319	-5,105	-1000000	-1000000	-1000000
169,20	-4,561	2,330	-5,136	-1000000	-1000000	-1000000
169,80	-4,588	2,339	-5,166	-1000000	-1000000	-1000000
170,40	-4,614	2,350	-5,197	-1000000	-1000000	-1000000
171,00	-4,642	2,359	-5,228	-1000000	-1000000	-1000000
171,60	-4,668	2,370	-5,258	-1000000	-1000000	-1000000
172,20	-4,695	2,379	-5,288	-1000000	-1000000	-1000000
172,80	-4,722	2,390	-5,318	-1000000	-1000000	-1000000
173,40	-4,749	2,400	-5,348	-1000000	-1000000	-1000000
174,00	-4,776	2,409	-5,379	-1000000	-1000000	-1000000
174,60	-4,803	2,420	-5,409	-1000000	-1000000	-1000000
175,20	-4,830	2,430	-5,440	-1000000	-1000000	-1000000
175,80	-4,858	2,440	-5,470	-1000000	-1000000	-1000000
176,40	-4,884	2,449	-5,501	-1000000	-1000000	-1000000
177,00	-4,912	2,460	-5,531	-1000000	-1000000	-1000000
177,60	-4,938	2,469	-5,562	-1000000	-1000000	-1000000
178,20	-4,967	2,480	-5,592	-1000000	-1000000	-1000000
178,80	-4,993	2,489	-5,622	-1000000	-1000000	-1000000
179,40	-5,019	2,500	-5,653	-1000000	-1000000	-1000000
180,00	-5,046	2,510	-5,683	-1000000	-1000000	-1000000
180,60	-5,073	2,520	-5,713	-1000000	-1000000	-1000000
181,20	-5,101	2,530	-5,744	-1000000	-1000000	-1000000
181,80	-5,129	2,539	-5,775	-1000000	-1000000	-1000000
182,40	-5,156	2,550	-5,805	-1000000	-1000000	-1000000
183,00	-5,183	2,559	-5,836	-1000000	-1000000	-1000000
183,60	-5,210	2,570	-5,867	-1000000	-1000000	-1000000
184,20	-5,237	2,579	-5,897	-1000000	-1000000	-1000000
184,80	-5,264	2,590	-5,927	-1000000	-1000000	-1000000
185,40	-5,291	2,599	-5,957	-1000000	-1000000	-1000000
186,00	-5,318	2,609	-5,987	-1000000	-1000000	-1000000
186,60	-5,345	2,619	-6,018	-1000000	-1000000	-1000000
187,20	-5,372	2,629	-6,048	-1000000	-1000000	-1000000
187,80	-5,396	2,639	-6,074	-1000000	-1000000	-1000000
188,40	-5,410	2,650	-6,089	-1000000	-1000000	-1000000
189,00	-5,437	2,660	-6,119	-1000000	-1000000	-1000000
189,60	-5,464	2,670	-6,149	-1000000	-1000000	-1000000
190,20	-5,491	2,680	-6,179	-1000000	-1000000	-1000000
190,80	-5,519	2,690	-6,210	-1000000	-1000000	-1000000
191,40	-5,545	2,700	-6,240	-1000000	-1000000	-1000000
192,00	-5,573	2,710	-6,270	-1000000	-1000000	-1000000
192,60	-5,601	2,720	-6,301	-1000000	-1000000	-1000000
193,20	-5,628	2,730	-6,332	-1000000	-1000000	-1000000
193,80	-5,655	2,740	-6,363	-1000000	-1000000	-1000000
194,40	-5,683	2,751	-6,393	-1000000	-1000000	-1000000
195,00	-5,710	2,761	-6,423	-1000000	-1000000	-1000000
195,60	-5,737	2,771	-6,454	-1000000	-1000000	-1000000
196,20	-5,766	2,781	-6,484	-1000000	-1000000	-1000000
196,80	-5,793	2,791	-6,514	-1000000	-1000000	-1000000
197,40	-5,820	2,800	-6,544	-1000000	-1000000	-1000000
198,00	-5,847	2,810	-6,575	-1000000	-1000000	-1000000
198,60	-5,875	2,820	-6,605	-1000000	-1000000	-1000000
199,20	-5,903	2,830	-6,636	-1000000	-1000000	-1000000
199,80	-5,931	2,840	-6,666	-1000000	-1000000	-1000000
200,40	-5,958	2,850	-6,696	-1000000	-1000000	-1000000
201,00	-5,985	2,860	-6,726	-1000000	-1000000	-1000000
201,60	-6,013	2,870	-6,756	-1000000	-1000000	-1000000
202,20	-6,040	2,879	-6,786	-1000000	-1000000	-1000000
202,80	-6,066	2,890	-6,816	-1000000	-1000000	-1000000
203,40	-6,094	2,899	-6,846	-1000000	-1000000	-1000000
204,00	-6,121	2,909	-6,876	-1000000	-1000000	-1000000
204,60	-6,149	2,919	-6,906	-1000000	-1000000	-1000000
205,20	-6,176	2,929	-6,937	-1000000	-1000000	-1000000
205,80	-6,202	2,939	-6,967	-1000000	-1000000	-1000000
206,40	-6,230	2,949	-6,997	-1000000	-1000000	-1000000
207,00	-6,257	2,959	-7,027	-1000000	-1000000	-1000000
207,60	-6,283	2,969	-7,057	-1000000	-1000000	-1000000
208,20	-6,311	2,979	-7,087	-1000000	-1000000	-1000000
208,80	-6,337	2,989	-7,116	-1000000	-1000000	-1000000
209,40	-6,365	2,999	-7,145	-1000000	-1000000	-1000000
210,00	-6,390	3,009	-7,173	-1000000	-1000000	-1000000
210,60	-6,408	3,019	-7,193	-1000000	-1000000	-1000000
211,20	-6,432	3,029	-7,219	-1000000	-1000000	-1000000
211,80	-6,458	3,039	-7,248	-1000000	-1000000	-1000000
212,40	-6,485	3,050	-7,278	-1000000	-1000000	-1000000
213,00	-6,512	3,059	-7,307	-1000000	-1000000	-1000000
213,60	-6,539	3,070	-7,336	-1000000	-1000000	-1000000
214,20	-6,565	3,079	-7,365	-1000000	-1000000	-1000000
214,80	-6,592	3,090	-7,394	-1000000	-1000000	-1000000
215,40	-6,619	3,099	-7,423	-1000000	-1000000	-1000000
216,00	-6,646	3,110	-7,453	-1000000	-1000000	-1000000
216,60	-6,673	3,120	-7,483	-1000000	-1000000	-1000000
217,20	-6,699	3,129	-7,512	-1000000	-1000000	-1000000
217,80	-6,728	3,140	-7,542	-1000000	-1000000	-1000000
218,40	-6,754	3,150	-7,571	-1000000	-1000000	-1000000
219,00	-6,781	3,160	-7,600	-1000000	-1000000	-1000000
219,60	-6,808	3,169	-7,630	-1000000	-1000000	-1000000
220,20	-6,834	3,180	-7,659	-1000000	-1000000	-1000000
220,80	-6,861	3,190	-7,689	-1000000	-1000000	-1000000
221,40	-6,888	3,200	-7,718	-1000000	-1000000	-1000000
222,00	-6,915	3,210	-7,747	-1000000	-1000000	-1000000
222,60	-6,942	3,220	-7,776	-1000000	-1000000	-1000000
223,20	-6,969	3,230	-7,805	-1000000	-1000000	-1000000
223,80	-6,996	3,240	-7,835	-1000000	-1000000	-1000000
224,40	-7,022	3,250	-7,865	-1000000	-1000000	-1000000
225,00	-7,050	3,260	-7,894	-1000000	-1000000	-1000000
225,60	-7,077	3,270	-7,924	-1000000	-1000000	-1000000
226,20	-7,104	3,279	-7,952	-1000000	-1000000	-1000000
226,80	-7,131	3,290	-7,982	-1000000	-1000000	-1000000
227,40	-7,158	3,300	-8,010	-1000000	-1000000	-1000000
228,00	-7,185	3,310	-8,040	-1000000	-1000000	-1000000
228,60	-7,210	3,319	-8,069	-1000000	-1000000	-1000000
229,20	-7,238	3,330	-8,099	-1000000	-1000000	-1000000
229,80	-7,266	3,340	-8,128	-1000000	-1000000	-1000000
230,40	-7,292	3,350	-8,157	-1000000	-1000000	-1000000
231,00	-7,320	3,361	-8,186	-1000000	-1000000	-1000000
231,60	-7,347	3,370	-8,215	-1000000	-1000000	-1000000
232,20	-7,373	3,380	-8,244	-1000000	-1000000	-1000000
232,80	-7,399	3,390	-8,271	-1000000	-1000000	-1000000
233,40	-7,421	3,401	-8,296	-1000000	-1000000	-1000000
234,00	-7,443	3,410	-8,320	-1000000	-1000000	-1000000
234,60	-7,468	3,420	-8,347	-1000000	-1000000	-1000000
235,20	-7,495	3,430	-8,376	-1000000	-1000000	-1000000
235,80	-7,521	3,440	-8,405	-1000000	-1000000	-1000000
236,40	-7,548	3,450	-8,434	-1000000	-1000000	-1000000
237,00	-7,576	3,460	-8,463	-1000000	-1000000	-1000000
237,60	-7,602	3,470	-8,491	-1000000	-1000000	-1000000
238,20	-7,629	3,479	-8,521	-1000000	-1000000	-1000000
238,80	-7,656	3,491	-8,550	-1000000	-1000000	-1000000
239,40	-7,684	3,499	-8,580	-1000000	-1000000	-1000000
240,00	-7,713	3,510	-8,611	-1000000	-1000000	-1000000
240,60	-7,741	3,520	-8,641	-1000000	-1000000	-1000000
241,20	-7,771	3,531	-8,672	-1000000	-1000000	-1000000
241,80	-7,799	3,540	-8,702	-1000000	-1000000	-1000000
242,40	-7,827	3,550	-8,734	-1000000	-1000000	-1000000
243,00	-7,856	3,560	-8,765	-1000000	-1000000	-1000000
243,60	-7,885	3,570	-8,795	-1000000	-1000000	-1000000
244,20	-7,915	3,580	-8,826	-1000000	-1000000	-1000000
244,80	-7,942	3,589	-8,856	-1000000	-1000000	-1000000
245,40	-7,971	3,601	-8,887	-1000000	-1000000	-1000000
246,00	-8,000	3,610	-8,918	-1000000	-1000000	-1000000
246,60	-8,029	3,620	-8,949	-1000000	-1000000	-1000000
247,20	-8,057	3,630	-8,981	-1000000	-1000000	-1000000
247,80	-8,086	3,640	-9,012	-1000000	-1000000	-1000000
248,40	-8,115	3,650	-9,043	-1000000	-1000000	-1000000
249,00	-8,144	3,660	-9,073	-1000000	-1000000	-1000000
249,60	-8,173	3,670	-9,104	-1000000	-1000000	-1000000
250,20	-8,202	3,680	-9,134	-1000000	-1000000	-1000000
250,80	-8,231	3,690	-9,165	-1000000	-1000000	-1000000
251,40	-8,259	3,699	-9,195	-1000000	-1000000	-1000000
252,00	-8,287	3,710	-9,227	-1000000	-1000000	-1000000
252,60	-8,316	3,719	-9,258	-1000000	-1000000	-1000000
253,20	-8,345	3,730	-9,289	-1000000	-1000000	-1000000
253,80	-8,374	3,740	-9,320	-1000000	-1000000	-1000000
254,40	-8,404	3,750	-9,351	-1000000	-1000000	-1000000
255,00	-8,432	3,760	-9,381	-1000000	-1000000	-1000000
255,60	-8,462	3,770	-9,412	-1000000	-1000000	-1000000
256,20	-8,491	3,779	-9,442	-1000000	-1000000	-1000000
256,80	-8,519	3,789	-9,473	-1000000	-1000000	-1000000
257,40	-8,548	3,800	-9,504	-1000000	-1000000	-1000000
258,00	-8,577	3,809	-9,534	-1000000	-1000000	-1000000
258,60	-8,606	3,819	-9,565	-1000000	-1000000	-1000000
259,20	-8,635	3,829	-9,596	-1000000	-1000000	-1000000
259,80	-8,664	3,840	-9,627	-1000000	-1000000	-1000000
260,40	-8,694	3,849	-9,657	-1000000	-1000000	-1000000
261,00	-8,721	3,859	-9,688	-1000000	-1000000	-1000000
261,60	-8,725	3,861	-9,691	-1000000	-1000000	-1000000
262,20	-8,721	3,861	-9,687	-1000000	-1000000	-1000000
262,80	-8,718	3,861	-9,683	-1000000	-1000000	-1000000
263,40	-8,714	3,861	-9,679	-1000000	-1000000	-1000000
264,00	-8,710	3,861	-9,675	-1000000	-1000000	-1000000
264,60	-8,706	3,861	-9,672	-1000000	-1000000	-1000000
265,20	-8,702	3,861	-9,669	-1000000	-1000000	-1000000
265,80	-8,702	3,861	-9,666	-1000000	-1000000	-1000000
266,40	-8,698	3,860	-9,663	-1000000	-1000000	-1000000
267,00	-8,695	3,861	-9,661	-1000000	-1000000	-1000000
267,60	-8,694	3,861	-9,658	-1000000	-1000000	-1000000
268,20	-8,690	3,861	-9,656	-1000000	-1000000	-1000000
268,80	-8,688	3,861	-9,653	-1000000	-1000000	-1000000
269,40	-8,686	3,861	-9,651	-1000000	-1000000	-1000000
270,00	-8,684	3,861	-9,649	-1000000	-1000000	-1000000
270,60	-8,682	3,861	-9,646	-1000000	-1000000	-1000000
271,20	-8,678	3,861	-9,644	-1000000	-1000000	-1000000
271,80	-8,678	3,861	-9,642	-1000000	-1000000	-1000000
272,40	-8,676	3,861	-9,640	-1000000	-1000000	-1000000
273,00	-8,674	3,861	-9,638	-1000000	-1000000	-1000000
273,60	-8,671	3,861	-9,636	-1000000	-1000000	-1000000
274,20	-8,670	3,861	-9,634	-1000000	-1000000	-1000000
274,80	-8,669	3,861	-9,632	-1000000	-1000000	-1000000
275,40	-8,665	3,861	-9,630	-1000000	-1000000	-1000000
276,00	-8,666	3,861	-9,629	-1000000	-1000000	-1000000
276,60	-8,662	3,861	-9,627	-1000000	-1000000	-1000000
277,20	-8,662	3,861	-9,625	-1000000	-1000000	-1000000
277,80	-8,660	3,861	-9,624	-1000000	-1000000	-1000000
278,40	-8,658	3,861	-9,622	-1000000	-1000000	-1000000
279,00	-8,658	3,861	-9,620	-1000000	-1000000	-1000000
279,60	-8,654	3,861	-9,618	-1000000	-1000000	-1000000
280,20	-8,654	3,861	-9,617	-1000000	-1000000	-1000000
280,80	-8,654	3,861	-9,615	-1000000	-1000000	-1000000
281,40	-8,650	3,861	-9,614	-1000000	-1000000	-1000000
282,00	-8,649	3,861	-9,612	-1000000	-1000000	-1000000
282,60	-8,648	3,861	-9,611	-1000000	-1000000	-1000000
283,20	-8,645	3,861	-9,609	-1000000	-1000000	-1000000
283,80	-8,645	3,861	-9,608	-1000000	-1000000	-1000000
284,40	-8,645	3,861	-9,607	-1000000	-1000000	-1000000
285,00	-8,641	3,861	-9,605	-1000000	-1000000	-1000000
285,60	-8,641	3,861	-9,604	-1000000	-1000000	-1000000
286,20	-8,641	3,861	-9,603	-1000000	-1000000	-1000000
286,80	-8,637	3,861	-9,601	-1000000	-1000000	-1000000
287,40	-8,637	3,861	-9,600	-1000000	-1000000	-1000000
288,00	-8,637	3,861	-9,599	-1000000	-1000000	-1000000
288,60	-8,634	3,862	-9,597	-1000000	-1000000	-1000000
289,20	-8,634	3,861	-9,596	-1000000	-1000000	-1000000
289,80	-8,633	3,862	-9,595	-1000000	-1000000	-1000000
290,40	-8,631	3,861	-9,594	-1000000	-1000000	-1000000
291,00	-8,629	3,861	-9,593	-1000000	-1000000	-1000000
291,60	-8,629	3,861	-9,591	-1000000	-1000000	-1000000
292,20	-8,629	3,861	-9,590	-1000000	-1000000	-1000000
292,80	-8,625	3,861	-9,589	-1000000	-1000000	-1000000
293,40	-8,625	3,861	-9,588	-1000000	-1000000	-1000000
294,00	-8,626	3,861	-9,587	-1000000	-1000000	-1000000
294,60	-8,625	3,861	-9,586	-1000000	-1000000	-1000000
295,20	-8,621	3,861	-9,585	-1000000	-1000000	-1000000
295,80	-8,621	3,861	-9,584	-1000000	-1000000	-1000000
296,40	-8,621	3,861	-9,582	-1000000	-1000000	-1000000
297,00	-8,621	3,861	-9,581	-1000000	-1000000	-1000000
297,60	-8,617	3,861	-9,580	-1000000	-1000000	-1000000
298,20	-8,617	3,862	-9,579	-1000000	-1000000	-1000000
298,80	-8,617	3,861	-9,578	-1000000	-1000000	-1000000
299,40	-8,617	3,861	-9,577	-1000000	-1000000	-1000000
300,00	-8,612	3,861	-9,576	-1000000	-1000000	-1000000
300,60	-8,612	3,861	-9,575	-1000000	-1000000	-1000000
301,20	-8,612	3,861	-9,574	-1000000	-1000000	-1000000
301,80	-8,613	3,861	-9,573	-1000000	-1000000	-1000000
302,40	-8,610	3,861	-9,573	-1000000	-1000000	-1000000
303,00	-8,609	3,861	-9,571	-1000000	-1000000	-1000000
303,60	-8,609	3,862	-9,571	-1000000	-1000000	-1000000
304,20	-8,609	3,862	-9,570	-1000000	-1000000	-1000000
304,80	-8,606	3,862	-9,544	-1000000	-1000000	-1000000
305,40	-8,605	3,862	-4,926	-1000000	-1000000	-1000000
306,00	-8,605	3,861	-3,935	-1000000	-1000000	-1000000
306,60	-8,604	3,862	-3,887	-1000000	-1000000	-1000000
307,20	-8,605	3,861	-4,040	-1000000	-1000000	-1000000
307,80	-8,601	3,861	-3,917	-1000000	-1000000	-1000000
308,40	-8,601	3,861	-3,890	-1000000	-1000000	-1000000
309,00	-8,601	3,861	-3,894	-1000000	-1000000	-1000000
309,60	-8,601	3,861	-3,879	-1000000	-1000000	-1000000
310,20	-8,599	3,861	-3,888	-1000000	-1000000	-1000000
310,80	-8,597	3,861	-3,877	-1000000	-1000000	-1000000
311,40	-8,596	3,861	-3,852	-1000000	-1000000	-1000000
312,00	-8,596	3,861	-3,866	-1000000	-1000000	-1000000
312,60	-8,596	3,861	-3,853	-1000000	-1000000	-1000000
313,20	-8,596	3,860	-3,869	-1000000	-1000000	-1000000
313,80	-8,592	3,860	-3,865	-1000000	-1000000	-1000000
314,40	-8,592	3,861	-3,852	-1000000	-1000000	-1000000
315,00	-8,592	3,861	-3,865	-1000000	-1000000	-1000000
315,60	-8,592	3,861	-3,909	-1000000	-1000000	-1000000
316,20	-8,591	3,861	-4,040	-1000000	-1000000	-1000000
316,80	-8,588	3,861	-4,046	-1000000	-1000000	-1000000
317,40	-8,588	3,861	-3,816	-1000000	-1000000	-1000000
318,00	-8,588	3,861	-3,954	-1000000	-1000000	-1000000
318,60	-8,585	3,861	3,130	-1000000	-1000000	-1000000
319,20	-8,586	3,861	3,554	-1000000	-1000000	-1000000
319,80	-8,588	3,861	6,607	-1000000	-1000000	-1000000
320,40	-8,585	3,861	6,765	-1000000	-1000000	-1000000
321,00	-8,584	3,861	6,806	-1000000	-1000000	-1000000
321,60	-8,584	3,861	6,793	-1000000	-1000000	-1000000
322,20	-8,584	3,861	6,792	-1000000	-1000000	-1000000
322,80	-8,584	3,861	6,787	-1000000	-1000000	-1000000
323,40	-8,582	3,861	6,577	-1000000	-1000000	-1000000
324,00	-8,580	3,861	6,967	-1000000	-1000000	-1000000
324,60	-8,580	3,861	6,925	-1000000	-1000000	-1000000
325,20	-8,580	3,861	6,572	-1000000	-1000000	-1000000
325,80	-8,580	3,862	6,058	-1000000	-1000000	-1000000
326,40	-8,578	3,861	6,593	-1000000	-1000000	-1000000
327,00	-8,574	3,861	6,571	-1000000	-1000000	-1000000
327,60	-8,576	3,861	6,601	-1000000	-1000000	-1000000
328,20	-8,575	3,862	6,089	-1000000	-1000000	-1000000
328,80	-8,572	3,862	7,555	-1000000	-1000000	-1000000
329,40	-8,572	3,861	6,604	-1000000	-1000000	-1000000
330,00	-8,572	3,862	6,589	-1000000	-1000000	-1000000
330,60	-8,570	3,861	6,601	-1000000	-1000000	-1000000
331,20	-8,568	3,861	6,585	-1000000	-1000000	-1000000
331,80	-8,571	3,861	6,439	-1000000	-1000000	-1000000
332,40	-8,568	3,861	6,407	-1000000	-1000000	-1000000
333,00	-8,568	3,861	6,406	-1000000	-1000000	-1000000
333,60	-8,567	3,861	6,414	-1000000	-1000000	-1000000
334,20	-8,567	3,861	6,417	-1000000	-1000000	-1000000
334,80	-8,567	3,861	6,419	-1000000	-1000000	-1000000
335,40	-8,567	3,861	5,586	-1000000	-1000000	-1000000
336,00	-8,566	3,862	5,531	-1000000	-1000000	-1000000
336,60	-8,563	3,861	5,457	-1000000	-1000000	-1000000
337,20	-8,563	3,861	5,443	-1000000	-1000000	-1000000
337,80	-8,564	3,861	5,448	-1000000	-1000000	-1000000
338,40	-8,564	3,862	5,450	-1000000	-1000000	-1000000
339,00	-8,564	3,862	5,464	-1000000	-1000000	-1000000
339,60	-8,564	3,861	5,539	-1000000	-1000000	-1000000
340,20	-8,560	3,861	5,541	-1000000	-1000000	-1000000
340,80	-8,559	3,862	5,541	-1000000	-1000000	-1000000
341,40	-8,559	3,861	5,541	-1000000	-1000000	-1000000
342,00	-8,559	3,861	5,541	-1000000	-1000000	-1000000
342,60	-8,559	3,862	5,541	-1000000	-1000000	-1000000
343,20	-8,559	3,862	5,541	-1000000	-1000000	-1000000
343,80	-8,559	3,862	5,541	-1000000	-1000000	-1000000
344,40	-8,556	3,861	5,541	-1000000	-1000000	-1000000
345,00	-8,556	3,861	5,541	-1000000	-1000000	-1000000
345,60	-8,555	3,861	5,541	-1000000	-1000000	-1000000
346,20	-8,555	3,862	5,541	-1000000	-1000000	-1000000
346,80	-8,555	3,862	5,541	-1000000	-1000000	-1000000
347,40	-8,555	3,862	5,541	-1000000	-1000000	-1000000
348,00	-8,555	3,861	5,541	-1000000	-1000000	-1000000
348,60	-8,554	3,861	5,541	-1000000	-1000000	-1000000
349,20	-8,551	3,861	5,541	-1000000	-1000000	-1000000
349,80	-8,551	3,862	5,541	-1000000	-1000000	-1000000
350,40	-8,551	3,861	5,541	-1000000	-1000000	-1000000
351,00	-8,571	3,869	5,541	-1000000	-1000000	-1000000
351,60	-8,604	3,878	5,542	-1000000	-1000000	-1000000
352,20	-8,638	3,888	5,542	-1000000	-1000000	-1000000
352,80	-8,671	3,898	5,542	-1000000	-1000000	-1000000
353,40	-8,704	3,908	5,542	-1000000	-1000000	-1000000
354,00	-8,737	3,918	5,542	-1000000	-1000000	-1000000
354,60	-8,771	3,928	5,542	-1000000	-1000000	-1000000
355,20	-8,804	3,939	5,542	-1000000	-1000000	-1000000
355,80	-8,836	3,948	5,542	-1000000	-1000000	-1000000
356,40	-8,869	3,958	5,542	-1000000	-1000000	-1000000
357,00	-8,900	3,967	5,542	-1000000	-1000000	-1000000
357,60	-8,931	3,979	5,542	-1000000	-1000000	-1000000
358,20	-8,962	3,988	5,542	-1000000	-1000000	-1000000
358,80	-8,994	3,999	5,542	-1000000	-1000000	-1000000
359,40	-9,025	4,008	5,542	-1000000	-1000000	-1000000
360,00	-9,060	4,019	5,542	-1000000	-1000000	-1000000
360,60	-9,092	4,028	5,542	-1000000	-1000000	-1000000
361,20	-9,123	4,038	5,542	-1000000	-1000000	-1000000
361,80	-9,154	4,049	5,542	-1000000	-1000000	-1000000
362,40	-9,185	4,058	5,542	-1000000	-1000000	-1000000
363,00	-9,216	4,069	5,542	-1000000	-1000000	-1000000
363,60	-9,246	4,077	5,542	-1000000	-1000000	-1000000
364,20	-9,276	4,088	5,542	-1000000	-1000000	-1000000
364,80	-9,307	4,098	5,542	-1000000	-1000000	-1000000
365,40	-9,337	4,108	5,542	-1000000	-1000000	-1000000
366,00	-9,367	4,117	5,542	-1000000	-1000000	-1000000
366,60	-9,399	4,128	5,542	-1000000	-1000000	-1000000
367,20	-9,430	4,137	5,542	-1000000	-1000000	-1000000
367,80	-9,460	4,147	5,542	-1000000	-1000000	-1000000
368,40	-9,490	4,158	5,542	-1000000	-1000000	-1000000
369,00	-9,521	4,168	5,542	-1000000	-1000000	-1000000
369,60	-9,551	4,178	5,542	-1000000	-1000000	-1000000
370,20	-9,580	4,187	5,542	-1000000	-1000000	-1000000
370,80	-9,610	4,198	5,542	-1000000	-1000000	-1000000
371,40	-9,640	4,208	5,542	-1000000	-1000000	-1000000
372,00	-9,670	4,218	5,542	-1000000	-1000000	-1000000
372,60	-9,701	4,228	5,542	-1000000	-1000000	-1000000
373,20	-9,731	4,238	5,542	-1000000	-1000000	-1000000
373,80	-9,761	4,247	5,542	-1000000	-1000000	-1000000
374,40	-9,791	4,258	5,542	-1000000	-1000000	-1000000
375,00	-9,822	4,272	5,542	-1000000	-1000000	-1000000
375,60	-9,850	4,281	5,542	-1000000	-1000000	-1000000
376,20	-9,880	4,292	5,542	-1000000	-1000000	-1000000
376,80	-9,910	4,302	5,542	-1000000	-1000000	-1000000
377,40	-9,939	4,312	5,542	-1000000	-1000000	-1000000
378,00	-9,969	4,322	5,542	-1000000	-1000000	-1000000
378,60	-10,000	4,332	5,542	-1000000	-1000000	-1000000
379,20	-10,03	4,342	5,542	-1000000	-1000000	-1000000
379,80	-10,06	4,352	5,543	-1000000	-1000000	-1000000
380,40	-10,09	4,361	5,542	-1000000	-1000000	-1000000
381,00	-10,12	4,372	5,543	-1000000	-1000000	-1000000
381,60	-10,15	4,381	5,542	-1000000	-1000000	-1000000
382,20	-10,18	4,392	5,543	-1000000	-1000000	-1000000
382,80	-10,21	4,402	5,543	-1000000	-1000000	-1000000
383,40	-10,24	4,412	5,543	-1000000	-1000000	-1000000
384,00	-10,27	4,422	5,543	-1000000	-1000000	-1000000
384,60	-10,30	4,431	5,543	-1000000	-1000000	-1000000
385,20	-10,32	4,442	5,543	-1000000	-1000000	-1000000
385,80	-10,35	4,452	5,543	-1000000	-1000000	-1000000
386,40	-10,38	4,462	5,543	-1000000	-1000000	-1000000
387,00	-10,40	4,472	5,543	-1000000	-1000000	-1000000
387,60	-10,43	4,482	5,543	-1000000	-1000000	-1000000
388,20	-10,46	4,492	5,543	-1000000	-1000000	-1000000
388,80	-10,49	4,502	5,543	-1000000	-1000000	-1000000
389,40	-10,52	4,512	5,543	-1000000	-1000000	-1000000
390,00	-10,55	4,522	5,543	-1000000	-1000000	-1000000
390,60	-10,57	4,532	5,543	-1000000	-1000000	-1000000
391,20	-10,61	4,542	5,543	-1000000	-1000000	-1000000
391,80	-10,63	4,552	5,543	-1000000	-1000000	-1000000
392,40	-10,66	4,562	5,543	-1000000	-1000000	-1000000
393,00	-10,69	4,572	5,543	-1000000	-1000000	-1000000
393,60	-10,72	4,582	5,543	-1000000	-1000000	-1000000
394,20	-10,75	4,592	5,543	-1000000	-1000000	-1000000
394,80	-10,78	4,602	5,543	-1000000	-1000000	-1000000
395,40	-10,81	4,612	5,543	-1000000	-1000000	-1000000
396,00	-10,84	4,622	5,543	-1000000	-1000000	-1000000
396,60	-10,87	4,632	5,543	-1000000	-1000000	-1000000
397,20	-10,90	4,641	5,543	-1000000	-1000000	-1000000
397,80	-10,93	4,652	5,543	-1000000	-1000000	-1000000
398,40	-10,96	4,662	5,543	-1000000	-1000000	-1000000
399,00	-10,99	4,672	5,543	-1000000	-1000000	-1000000
399,60	-11,01	4,682	5,543	-1000000	-1000000	-1000000
400,20	-11,04	4,691	5,543	-1000000	-1000000	-1000000
400,80	-11,07	4,703	5,543	-1000000	-1000000	-1000000
401,40	-11,10	4,712	5,543	-1000000	-1000000	-1000000
402,00	-11,13	4,722	5,543	-1000000	-1000000	-1000000
402,60	-11,16	4,732	5,543	-1000000	-1000000	-1000000
403,20	-11,19	4,742	5,543	-1000000	-1000000	-1000000
403,80	-11,22	4,752	5,543	-1000000	-1000000	-1000000
404,40	-11,25	4,762	5,543	-1000000	-1000000	-1000000
405,00	-11,27	4,772	5,543	-1000000	-1000000	-1000000
405,60	-11,30	4,782	5,543	-1000000	-1000000	-1000000
406,20	-11,33	4,792	5,543	-1000000	-1000000	-1000000
406,80	-11,36	4,802	5,543	-1000000	-1000000	-1000000
407,40	-11,39	4,813	5,543	-1000000	-1000000	-1000000
408,00	-11,42	4,822	5,543	-1000000	-1000000	-1000000
408,60	-11,45	4,833	5,543	-1000000	-1000000	-1000000
409,20	-11,48	4,842	5,543	-1000000	-1000000	-1000000
409,80	-11,51	4,853	5,543	-1000000	-1000000	-1000000
410,40	-11,53	4,863	5,543	-1000000	-1000000	-1000000
411,00	-11,56	4,872	5,543	-1000000	-1000000	-1000000
411,60	-11,59	4,882	5,543	-1000000	-1000000	-1000000
412,20	-11,62	4,892	5,543	-1000000	-1000000	-1000000
412,80	-11,65	4,903	5,543	-1000000	-1000000	-1000000
413,40	-11,68	4,912	5,543	-1000000	-1000000	-1000000
414,00	-11,71	4,923	5,543	-1000000	-1000000	-1000000
414,60	-11,74	4,932	5,543	-1000000	-1000000	-1000000
415,20	-11,76	4,943	5,543	-1000000	-1000000	-1000000
415,80	-11,79	4,952	5,543	-1000000	-1000000	-1000000
416,40	-11,82	4,963	5,543	-1000000	-1000000	-1000000
417,00	-11,85	4,973	5,543	-1000000	-1000000	-1000000
417,60	-11,88	4,982	5,543	-1000000	-1000000	-1000000
418,20	-11,91	4,991	5,543	-1000000	-1000000	-1000000
418,80	-11,93	5,001	5,543	-1000000	-1000000	-1000000
419,40	-11,96	5,012	5,543	-1000000	-1000000	-1000000
420,00	-11,99	5,021	5,544	-1000000	-1000000	-1000000
420,60	-12,02	5,032	5,544	-1000000	-1000000	-1000000
421,20	-12,04	5,041	5,543	-1000000	-1000000	-1000000
421,80	-12,07	5,052	5,543	-1000000	-1000000	-1000000
422,40	-12,10	5,061	5,543	-1000000	-1000000	-1000000
423,00	-12,13	5,071	5,543	-1000000	-1000000	-1000000
423,60	-12,15	5,081	5,543	-1000000	-1000000	-1000000
424,20	-12,18	5,091	5,543	-1000000	-1000000	-1000000
424,80	-12,21	5,102	5,543	-1000000	-1000000	-1000000
425,40	-12,24	5,111	5,543	-1000000	-1000000	-1000000
426,00	-12,27	5,122	5,544	-1000000	-1000000	-1000000
426,60	-12,30	5,131	5,543	-1000000	-1000000	-1000000
427,20	-12,32	5,141	5,543	-1000000	-1000000	-1000000
427,80	-12,35	5,151	5,543	-1000000	-1000000	-1000000
428,40	-12,38	5,162	5,543	-1000000	-1000000	-1000000
429,00	-12,41	5,171	5,543	-1000000	-1000000	-1000000
429,60	-12,44	5,181	5,543	-1000000	-1000000	-1000000
430,20	-12,46	5,191	5,544	-1000000	-1000000	-1000000
430,80	-12,49	5,202	5,543	-1000000	-1000000	-1000000
431,40	-12,52	5,212	5,544	-1000000	-1000000	-1000000
432,00	-12,55	5,222	5,543	-1000000	-1000000	-1000000
432,60	-12,58	5,232	5,543	-1000000	-1000000	-1000000
433,20	-12,60	5,241	5,544	-1000000	-1000000	-1000000
433,80	-12,63	5,252	5,543	-1000000	-1000000	-1000000
434,40	-12,66	5,261	5,544	-1000000	-1000000	-1000000
435,00	-12,69	5,271	5,544	-1000000	-1000000	-1000000
435,60	-12,72	5,281	5,544	-1000000	-1000000	-1000000
436,20	-12,75	5,291	5,543	-1000000	-1000000	-1000000
436,80	-12,77	5,301	5,543	-1000000	-1000000	-1000000
437,40	-12,80	5,311	5,543	-1000000	-1000000	-1000000
438,00	-12,83	5,321	5,544	-1000000	-1000000	-1000000
438,60	-12,86	5,331	5,543	-1000000	-1000000	-1000000
439,20	-12,89	5,341	5,543	-1000000	-1000000	-1000000
439,80	-12,91	5,351	5,543	-1000000	-1000000	-1000000
440,40	-12,94	5,361	5,543	-1000000	-1000000	-1000000
441,00	-12,97	5,371	5,544	-1000000	-1000000	-1000000
441,60	-13,00	5,381	5,543	-1000000	-1000000	-1000000
442,20	-13,03	5,391	5,544	-1000000	-1000000	-1000000
442,80	-13,05	5,401	5,544	-1000000	-1000000	-1000000
443,40	-13,08	5,411	5,543	-1000000	-1000000	-1000000
444,00	-13,11	5,421	5,543	-1000000	-1000000	-1000000
444,60	-13,14	5,431	5,544	-1000000	-1000000	-1000000
445,20	-13,17	5,441	5,543	-1000000	-1000000	-1000000
445,80	-13,19	5,451	5,543	-1000000	-1000000	-1000000
446,40	-13,22	5,461	5,544	-1000000	-1000000	-1000000
447,00	-13,25	5,471	5,543	-1000000	-1000000	-1000000
447,60	-13,28	5,481	5,544	-1000000	-1000000	-1000000
448,20	-13,31	5,491	5,544	-1000000	-1000000	-1000000
448,80	-13,33	5,500	5,544	-1000000	-1000000	-1000000
449,40	-13,36	5,511	5,544	-1000000	-1000000	-1000000
450,00	-13,39	5,521	5,543	-1000000	-1000000	-1000000
450,60	-13,42	5,531	5,543	-1000000	-1000000	-1000000
451,20	-12,21	5,541	5,544	-1000000	-1000000	-1000000
451,80	-12,23	5,551	5,543	-1000000	-1000000	-1000000
452,40	-12,25	5,561	5,544	-1000000	-1000000	-1000000
453,00	-12,27	5,571	5,543	-1000000	-1000000	-1000000
453,60	-12,29	5,581	5,543	-1000000	-1000000	-1000000
454,20	-12,32	5,591	5,543	-1000000	-1000000	-1000000
454,80	-12,34	5,601	5,543	-1000000	-1000000	-1000000
455,40	-12,37	5,611	5,544	-1000000	-1000000	-1000000
456,00	-12,39	5,621	5,544	-1000000	-1000000	-1000000
456,60	-12,41	5,631	5,544	-1000000	-1000000	-1000000
457,20	-12,44	5,641	5,543	-1000000	-1000000	-1000000
457,80	-12,46	5,651	5,543	-1000000	-1000000	-1000000
458,40	-12,48	5,661	5,543	-1000000	-1000000	-1000000
459,00	-12,50	5,671	5,543	-1000000	-1000000	-1000000
459,60	-12,53	5,680	5,543	-1000000	-1000000	-1000000
460,20	-12,55	5,691	5,543	-1000000	-1000000	-1000000
460,80	-12,58	5,700	5,543	-1000000	-1000000	-1000000
461,40	-12,60	5,710	5,543	-1000000	-1000000	-1000000
462,00	-12,62	5,720	5,543	-1000000	-1000000	-1000000
462,60	-12,65	5,731	5,543	-1000000	-1000000	-1000000
463,20	-12,67	5,740	5,543	-1000000	-1000000	-1000000
463,80	-12,69	5,751	5,543	-1000000	-1000000	-1000000
464,40	-12,72	5,760	5,543	-1000000	-1000000	-1000000
465,00	-12,74	5,771	5,543	-1000000	-1000000	-1000000
465,60	-12,76	5,780	5,543	-1000000	-1000000	-1000000
466,20	-12,79	5,790	5,543	-1000000	-1000000	-1000000
466,80	-12,81	5,800	5,543	-1000000	-1000000	-1000000
467,40	-12,83	5,810	5,543	-1000000	-1000000	-1000000
468,00	-12,86	5,820	5,543	-1000000	-1000000	-1000000
468,60	-12,88	5,830	5,543	-1000000	-1000000	-1000000
469,20	-12,91	5,841	5,543	-1000000	-1000000	-1000000
469,80	-12,93	5,850	5,543	-1000000	-1000000	-1000000
470,40	-12,95	5,861	5,543	-1000000	-1000000	-1000000
471,00	-12,98	5,870	5,543	-1000000	-1000000	-1000000
471,60	-13,00	5,881	5,543	-1000000	-1000000	-1000000
472,20	-13,02	5,890	5,543	-1000000	-1000000	-1000000
472,80	-13,05	5,900	5,543	-1000000	-1000000	-1000000
473,40	-13,07	5,910	5,543	-1000000	-1000000	-1000000
474,00	-13,09	5,920	5,543	-1000000	-1000000	-1000000
474,60	-13,12	5,930	5,543	-1000000	-1000000	-1000000
475,20	-13,14	5,940	5,543	-1000000	-1000000	-1000000
475,80	-13,16	5,950	5,543	-1000000	-1000000	-1000000
476,40	-13,19	5,959	5,543	-1000000	-1000000	-1000000
477,00	-13,21	5,970	5,543	-1000000	-1000000	-1000000
477,60	-13,23	5,979	5,543	-1000000	-1000000	-1000000
478,20	-13,26	5,990	5,543	-1000000	-1000000	-1000000
478,80	-13,28	6,000	5,543	-1000000	-1000000	-1000000
479,40	-13,30	6,010	5,543	-1000000	-1000000	-1000000
480,00	-13,33	6,020	5,543	-1000000	-1000000	-1000000
480,60	-13,35	6,030	5,543	-1000000	-1000000	-1000000
481,20	-13,37	6,040	5,543	-1000000	-1000000	-1000000
481,80	-13,40	6,050	5,543	-1000000	-1000000	-1000000
482,40	-13,42	6,060	5,543	-1000000	-1000000	-1000000
483,00	-13,44	6,070	5,543	-1000000	-1000000	-1000000
483,60	-13,39	6,080	5,543	-1000000	-1000000	-1000000
484,20	-0,00658	6,089	5,543	-1000000	-1000000	-1000000
484,80	0,00403	6,100	5,543	-1000000	-1000000	-1000000
485,40	0,00022	6,109	5,543	-1000000	-1000000	-1000000
486,00	-0,00015	6,120	5,543	-1000000	-1000000	-1000000
486,60	-0,00013	6,130	5,543	-1000000	-1000000	-1000000
487,20	-0,00231	6,140	5,543	-1000000	-1000000	-1000000
487,80	-0,00377	6,150	5,544	-1000000	-1000000	-1000000
488,40	-0,00409	6,159	5,544	-1000000	-1000000	-1000000
489,00	-0,00433	6,170	5,543	-1000000	-1000000	-1000000
489,60	-0,00443	6,180	5,543	-1000000	-1000000	-1000000
490,20	-0,00533	6,190	5,543	-1000000	-1000000	-1000000
490,80	-0,00528	6,199	5,543	-1000000	-1000000	-1000000
491,40	-0,00635	6,210	5,544	-1000000	-1000000	-1000000
492,00	-0,00652	6,219	5,543	-1000000	-1000000	-1000000
492,60	-0,00678	6,230	5,544	-1000000	-1000000	-1000000
493,20	-0,00794	6,239	5,543	-1000000	-1000000	-1000000
493,80	-0,00802	6,250	5,543	-1000000	-1000000	-1000000
494,40	-0,00811	6,260	5,544	-1000000	-1000000	-1000000
495,00	-0,00841	6,270	5,544	-1000000	-1000000	-1000000
495,60	-0,00873	6,280	5,544	-1000000	-1000000	-1000000
496,20	-0,00832	6,289	5,544	-1000000	-1000000	-1000000
496,80	-0,00866	6,299	5,544	-1000000	-1000000	-1000000
497,40	-0,00848	6,309	5,544	-1000000	-1000000	-1000000
498,00	-0,00819	6,319	5,544	-1000000	-1000000	-1000000
498,30	-0,00828	6,324	5,544	-1000000	-1000000	-1000000