File: notebooks/experimental_tests/results/carbon_tensile_tests/F10.txt
Zeit  1 - Standardmessrate [s]	Kraft [kN]	Weg [mm]	DD1 [Prom]	PMX_1 CH 3-2 [µm/m]	PMX_1 CH 3-3 [mm]	PMX_1 CH 3-4 [mm]
0	-0,06229	-4,698	-0,00036	-1000000	-1000000	-1000000
0,4000	-0,06203	-4,702	-0,00042	-1000000	-1000000	-1000000
0,8000	-0,06212	-4,702	-0,00063	-1000000	-1000000	-1000000
1,200	-0,06190	-4,701	-0,00078	-1000000	-1000000	-1000000
1,600	-0,06187	-4,702	-0,00099	-1000000	-1000000	-1000000
2,000	-0,06216	-4,702	-0,00119	-1000000	-1000000	-1000000
2,400	-0,06214	-4,701	-0,00127	-1000000	-1000000	-1000000
2,800	-0,06221	-4,701	-0,00167	-1000000	-1000000	-1000000
3,200	-0,06216	-4,700	-0,00243	-1000000	-1000000	-1000000
3,600	-0,06202	-4,693	-0,00335	-1000000	-1000000	-1000000
4,000	-0,06190	-4,685	-0,00389	-1000000	-1000000	-1000000
4,400	-0,06267	-4,679	-0,00453	-1000000	-1000000	-1000000
4,800	-0,06322	-4,672	-0,00500	-1000000	-1000000	-1000000
5,200	-0,06426	-4,666	-0,00570	-1000000	-1000000	-1000000
5,600	-0,06590	-4,659	-0,00618	-1000000	-1000000	-1000000
6,000	-0,06608	-4,652	-0,00655	-1000000	-1000000	-1000000
6,400	-0,06642	-4,645	-0,00707	-1000000	-1000000	-1000000
6,800	-0,06649	-4,639	-0,00759	-1000000	-1000000	-1000000
7,200	-0,06645	-4,632	-0,00795	-1000000	-1000000	-1000000
7,600	-0,06625	-4,625	-0,00834	-1000000	-1000000	-1000000
8,000	-0,06653	-4,619	-0,00887	-1000000	-1000000	-1000000
8,400	-0,06668	-4,613	-0,00934	-1000000	-1000000	-1000000
8,800	-0,06690	-4,606	-0,00978	-1000000	-1000000	-1000000
9,200	-0,06659	-4,599	-0,01006	-1000000	-1000000	-1000000
9,600	-0,06640	-4,592	-0,01062	-1000000	-1000000	-1000000
10,00	-0,06669	-4,586	-0,01111	-1000000	-1000000	-1000000
10,40	-0,06680	-4,578	-0,01147	-1000000	-1000000	-1000000
10,80	-0,06693	-4,572	-0,01192	-1000000	-1000000	-1000000
11,20	-0,06658	-4,566	-0,01241	-1000000	-1000000	-1000000
11,60	-0,06672	-4,558	-0,01295	-1000000	-1000000	-1000000
12,00	-0,06673	-4,552	-0,01351	-1000000	-1000000	-1000000
12,40	-0,06711	-4,545	-0,01391	-1000000	-1000000	-1000000
12,80	-0,06786	-4,539	-0,01431	-1000000	-1000000	-1000000
13,20	-0,06895	-4,533	-0,01472	-1000000	-1000000	-1000000
13,60	-0,07013	-4,525	-0,01516	-1000000	-1000000	-1000000
14,00	-0,06958	-4,519	-0,01560	-1000000	-1000000	-1000000
14,40	-0,06961	-4,513	-0,01588	-1000000	-1000000	-1000000
14,80	-0,06987	-4,506	-0,01634	-1000000	-1000000	-1000000
15,20	-0,07022	-4,499	-0,01678	-1000000	-1000000	-1000000
15,60	-0,07007	-4,492	-0,01708	-1000000	-1000000	-1000000
16,00	-0,07002	-4,485	-0,01754	-1000000	-1000000	-1000000
16,40	-0,06988	-4,479	-0,01788	-1000000	-1000000	-1000000
16,80	-0,06989	-4,473	-0,01820	-1000000	-1000000	-1000000
17,20	-0,07020	-4,465	-0,01864	-1000000	-1000000	-1000000
17,60	-0,07012	-4,459	-0,01903	-1000000	-1000000	-1000000
18,00	-0,07034	-4,452	-0,01936	-1000000	-1000000	-1000000
18,40	-0,07072	-4,445	-0,01974	-1000000	-1000000	-1000000
18,80	-0,07086	-4,439	-0,02015	-1000000	-1000000	-1000000
19,20	-0,07046	-4,432	-0,02061	-1000000	-1000000	-1000000
19,60	-0,07066	-4,425	-0,02098	-1000000	-1000000	-1000000
20,00	-0,07133	-4,419	-0,02151	-1000000	-1000000	-1000000
20,40	-0,07121	-4,412	-0,02192	-1000000	-1000000	-1000000
20,80	-0,07107	-4,406	-0,02220	-1000000	-1000000	-1000000
21,20	-0,07270	-4,399	-0,02255	-1000000	-1000000	-1000000
21,60	-0,07273	-4,392	-0,02290	-1000000	-1000000	-1000000
22,00	-0,07277	-4,386	-0,02317	-1000000	-1000000	-1000000
22,40	-0,07397	-4,379	-0,02359	-1000000	-1000000	-1000000
22,80	-0,07405	-4,372	-0,02393	-1000000	-1000000	-1000000
23,20	-0,07425	-4,366	-0,02430	-1000000	-1000000	-1000000
23,60	-0,07480	-4,359	-0,02464	-1000000	-1000000	-1000000
24,00	-0,07488	-4,353	-0,02496	-1000000	-1000000	-1000000
24,40	-0,07467	-4,346	-0,02531	-1000000	-1000000	-1000000
24,80	-0,07489	-4,339	-0,02564	-1000000	-1000000	-1000000
25,20	-0,07503	-4,332	-0,02600	-1000000	-1000000	-1000000
25,60	-0,07469	-4,326	-0,02639	-1000000	-1000000	-1000000
26,00	-0,07470	-4,319	-0,02693	-1000000	-1000000	-1000000
26,40	-0,07482	-4,313	-0,02733	-1000000	-1000000	-1000000
26,80	-0,07481	-4,306	-0,02776	-1000000	-1000000	-1000000
27,20	-0,07443	-4,298	-0,02800	-1000000	-1000000	-1000000
27,60	-0,07482	-4,292	-0,02834	-1000000	-1000000	-1000000
28,00	-0,07452	-4,285	-0,02872	-1000000	-1000000	-1000000
28,40	-0,07454	-4,279	-0,02891	-1000000	-1000000	-1000000
28,80	-0,07523	-4,273	-0,02936	-1000000	-1000000	-1000000
29,20	-0,07474	-4,265	-0,02968	-1000000	-1000000	-1000000
29,60	-0,07555	-4,259	-0,02998	-1000000	-1000000	-1000000
30,00	-0,07588	-4,252	-0,03038	-1000000	-1000000	-1000000
30,40	-0,07629	-4,245	-0,03073	-1000000	-1000000	-1000000
30,80	-0,07649	-4,239	-0,03106	-1000000	-1000000	-1000000
31,20	-0,07715	-4,232	-0,03135	-1000000	-1000000	-1000000
31,60	-0,07697	-4,225	-0,03176	-1000000	-1000000	-1000000
32,00	-0,07731	-4,219	-0,03219	-1000000	-1000000	-1000000
32,40	-0,07787	-4,212	-0,03248	-1000000	-1000000	-1000000
32,80	-0,07788	-4,205	-0,03273	-1000000	-1000000	-1000000
33,20	-0,07796	-4,199	-0,03316	-1000000	-1000000	-1000000
33,60	-0,07839	-4,192	-0,03350	-1000000	-1000000	-1000000
34,00	-0,07823	-4,186	-0,03379	-1000000	-1000000	-1000000
34,40	-0,07825	-4,179	-0,03415	-1000000	-1000000	-1000000
34,80	-0,07858	-4,171	-0,03448	-1000000	-1000000	-1000000
35,20	-0,07819	-4,165	-0,03474	-1000000	-1000000	-1000000
35,60	-0,07814	-4,158	-0,03501	-1000000	-1000000	-1000000
36,00	-0,07806	-4,153	-0,03545	-1000000	-1000000	-1000000
36,40	-0,07807	-4,146	-0,03570	-1000000	-1000000	-1000000
36,80	-0,07810	-4,139	-0,03601	-1000000	-1000000	-1000000
37,20	-0,07827	-4,132	-0,03636	-1000000	-1000000	-1000000
37,60	-0,07822	-4,126	-0,03673	-1000000	-1000000	-1000000
38,00	-0,07818	-4,119	-0,03713	-1000000	-1000000	-1000000
38,40	-0,07818	-4,113	-0,03741	-1000000	-1000000	-1000000
38,80	-0,07832	-4,106	-0,03771	-1000000	-1000000	-1000000
39,20	-0,07800	-4,099	-0,03799	-1000000	-1000000	-1000000
39,60	-0,07854	-4,093	-0,03844	-1000000	-1000000	-1000000
40,00	-0,07862	-4,085	-0,03871	-1000000	-1000000	-1000000
40,40	-0,07930	-4,079	-0,03904	-1000000	-1000000	-1000000
40,80	-0,08005	-4,072	-0,03938	-1000000	-1000000	-1000000
41,20	-0,07977	-4,066	-0,03967	-1000000	-1000000	-1000000
41,60	-0,08043	-4,059	-0,03999	-1000000	-1000000	-1000000
42,00	-0,08132	-4,053	-0,04024	-1000000	-1000000	-1000000
42,40	-0,08176	-4,045	-0,04052	-1000000	-1000000	-1000000
42,80	-0,08176	-4,040	-0,04084	-1000000	-1000000	-1000000
43,20	-0,08172	-4,034	-0,04123	-1000000	-1000000	-1000000
43,60	-0,08188	-4,026	-0,04148	-1000000	-1000000	-1000000
44,00	-0,08185	-4,020	-0,04178	-1000000	-1000000	-1000000
44,40	-0,08247	-4,013	-0,04214	-1000000	-1000000	-1000000
44,80	-0,08232	-4,006	-0,04246	-1000000	-1000000	-1000000
45,20	-0,08241	-4,000	-0,04276	-1000000	-1000000	-1000000
45,60	-0,08253	-3,993	-0,04307	-1000000	-1000000	-1000000
46,00	-0,08232	-3,986	-0,04367	-1000000	-1000000	-1000000
46,40	-0,08233	-3,980	-0,04390	-1000000	-1000000	-1000000
46,80	-0,08277	-3,973	-0,04426	-1000000	-1000000	-1000000
47,20	-0,08285	-3,967	-0,04446	-1000000	-1000000	-1000000
47,60	-0,08255	-3,960	-0,04462	-1000000	-1000000	-1000000
48,00	-0,08270	-3,953	-0,04501	-1000000	-1000000	-1000000
48,40	-0,08264	-3,946	-0,04532	-1000000	-1000000	-1000000
48,80	-0,08288	-3,939	-0,04556	-1000000	-1000000	-1000000
49,20	-0,08270	-3,933	-0,04584	-1000000	-1000000	-1000000
49,60	-0,08304	-3,926	-0,04610	-1000000	-1000000	-1000000
50,00	-0,08313	-3,920	-0,04621	-1000000	-1000000	-1000000
50,40	-0,08319	-3,913	-0,04653	-1000000	-1000000	-1000000
50,80	-0,08318	-3,906	-0,04696	-1000000	-1000000	-1000000
51,20	-0,08283	-3,899	-0,04709	-1000000	-1000000	-1000000
51,60	-0,08355	-3,893	-0,04734	-1000000	-1000000	-1000000
52,00	-0,08351	-3,886	-0,04758	-1000000	-1000000	-1000000
52,40	-0,08291	-3,879	-0,04782	-1000000	-1000000	-1000000
52,80	-0,08292	-3,873	-0,04804	-1000000	-1000000	-1000000
53,20	-0,08409	-3,867	-0,04837	-1000000	-1000000	-1000000
53,60	-0,08377	-3,860	-0,04865	-1000000	-1000000	-1000000
54,00	-0,08405	-3,853	-0,04890	-1000000	-1000000	-1000000
54,40	-0,08433	-3,846	-0,04918	-1000000	-1000000	-1000000
54,80	-0,08515	-3,840	-0,04942	-1000000	-1000000	-1000000
55,20	-0,08527	-3,833	-0,04969	-1000000	-1000000	-1000000
55,60	-0,08450	-3,826	-0,04983	-1000000	-1000000	-1000000
56,00	-0,08622	-3,820	-0,05005	-1000000	-1000000	-1000000
56,40	-0,08599	-3,813	-0,05031	-1000000	-1000000	-1000000
56,80	-0,08668	-3,807	-0,05061	-1000000	-1000000	-1000000
57,20	-0,08648	-3,800	-0,05079	-1000000	-1000000	-1000000
57,60	-0,08670	-3,793	-0,05105	-1000000	-1000000	-1000000
58,00	-0,08644	-3,786	-0,05120	-1000000	-1000000	-1000000
58,40	-0,08661	-3,780	-0,05154	-1000000	-1000000	-1000000
58,80	-0,08685	-3,773	-0,05171	-1000000	-1000000	-1000000
59,20	-0,08661	-3,766	-0,05194	-1000000	-1000000	-1000000
59,60	-0,08605	-3,760	-0,05211	-1000000	-1000000	-1000000
60,00	-0,08666	-3,753	-0,05243	-1000000	-1000000	-1000000
60,40	-0,08662	-3,746	-0,05267	-1000000	-1000000	-1000000
60,80	-0,08641	-3,740	-0,05284	-1000000	-1000000	-1000000
61,20	-0,08649	-3,732	-0,05306	-1000000	-1000000	-1000000
61,60	-0,08652	-3,726	-0,05329	-1000000	-1000000	-1000000
62,00	-0,08658	-3,719	-0,05344	-1000000	-1000000	-1000000
62,40	-0,08698	-3,713	-0,05365	-1000000	-1000000	-1000000
62,80	-0,08691	-3,706	-0,05386	-1000000	-1000000	-1000000
63,20	-0,08654	-3,700	-0,05400	-1000000	-1000000	-1000000
63,60	-0,08667	-3,693	-0,05425	-1000000	-1000000	-1000000
64,00	-0,08666	-3,686	-0,05461	-1000000	-1000000	-1000000
64,40	-0,08646	-3,679	-0,05479	-1000000	-1000000	-1000000
64,80	-0,08664	-3,673	-0,05491	-1000000	-1000000	-1000000
65,20	-0,08673	-3,667	-0,05510	-1000000	-1000000	-1000000
65,60	-0,08671	-3,659	-0,05536	-1000000	-1000000	-1000000
66,00	-0,08647	-3,652	-0,05560	-1000000	-1000000	-1000000
66,40	-0,08638	-3,647	-0,05592	-1000000	-1000000	-1000000
66,80	-0,08647	-3,639	-0,05599	-1000000	-1000000	-1000000
67,20	-0,08640	-3,632	-0,05618	-1000000	-1000000	-1000000
67,60	-0,08659	-3,626	-0,05646	-1000000	-1000000	-1000000
68,00	-0,08626	-3,619	-0,05658	-1000000	-1000000	-1000000
68,40	-0,08641	-3,612	-0,05680	-1000000	-1000000	-1000000
68,80	-0,08634	-3,606	-0,05698	-1000000	-1000000	-1000000
69,20	-0,08703	-3,599	-0,05761	-1000000	-1000000	-1000000
69,60	-0,08667	-3,593	-0,05756	-1000000	-1000000	-1000000
70,00	-0,08655	-3,586	-0,05782	-1000000	-1000000	-1000000
70,40	-0,08731	-3,579	-0,05799	-1000000	-1000000	-1000000
70,80	-0,08680	-3,573	-0,05823	-1000000	-1000000	-1000000
71,20	-0,08653	-3,566	-0,05843	-1000000	-1000000	-1000000
71,60	-0,08711	-3,560	-0,05857	-1000000	-1000000	-1000000
72,00	-0,08718	-3,553	-0,05874	-1000000	-1000000	-1000000
72,40	-0,08676	-3,546	-0,05890	-1000000	-1000000	-1000000
72,80	-0,08773	-3,540	-0,05898	-1000000	-1000000	-1000000
73,20	-0,08733	-3,533	-0,05926	-1000000	-1000000	-1000000
73,60	-0,08765	-3,526	-0,05935	-1000000	-1000000	-1000000
74,00	-0,08801	-3,520	-0,05956	-1000000	-1000000	-1000000
74,40	-0,08785	-3,513	-0,05968	-1000000	-1000000	-1000000
74,80	-0,08829	-3,506	-0,05988	-1000000	-1000000	-1000000
75,20	-0,08777	-3,500	-0,06004	-1000000	-1000000	-1000000
75,60	-0,08890	-3,493	-0,06026	-1000000	-1000000	-1000000
76,00	-0,08802	-3,487	-0,06051	-1000000	-1000000	-1000000
76,40	-0,08886	-3,480	-0,06058	-1000000	-1000000	-1000000
76,80	-0,08853	-3,473	-0,06083	-1000000	-1000000	-1000000
77,20	-0,08866	-3,466	-0,06093	-1000000	-1000000	-1000000
77,60	-0,08734	-3,460	-0,06119	-1000000	-1000000	-1000000
78,00	-0,08850	-3,453	-0,06116	-1000000	-1000000	-1000000
78,40	-0,08892	-3,447	-0,06148	-1000000	-1000000	-1000000
78,80	-0,08879	-3,439	-0,06147	-1000000	-1000000	-1000000
79,20	-0,08885	-3,433	-0,06169	-1000000	-1000000	-1000000
79,60	-0,08983	-3,427	-0,06184	-1000000	-1000000	-1000000
80,00	-0,08999	-3,420	-0,06197	-1000000	-1000000	-1000000
80,40	-0,08852	-3,413	-0,06204	-1000000	-1000000	-1000000
80,80	-0,08916	-3,407	-0,06221	-1000000	-1000000	-1000000
81,20	-0,08905	-3,400	-0,06227	-1000000	-1000000	-1000000
81,60	-0,08937	-3,394	-0,06247	-1000000	-1000000	-1000000
82,00	-0,08803	-3,387	-0,06244	-1000000	-1000000	-1000000
82,40	-0,08787	-3,380	-0,06277	-1000000	-1000000	-1000000
82,80	-0,08847	-3,374	-0,06271	-1000000	-1000000	-1000000
83,20	-0,08860	-3,367	-0,06287	-1000000	-1000000	-1000000
83,60	-0,08984	-3,360	-0,06301	-1000000	-1000000	-1000000
84,00	-0,08875	-3,354	-0,06302	-1000000	-1000000	-1000000
84,40	-0,08966	-3,346	-0,06313	-1000000	-1000000	-1000000
84,80	-0,08948	-3,340	-0,06331	-1000000	-1000000	-1000000
85,20	-0,08860	-3,334	-0,06343	-1000000	-1000000	-1000000
85,60	-0,08961	-3,326	-0,06352	-1000000	-1000000	-1000000
86,00	-0,08974	-3,320	-0,06363	-1000000	-1000000	-1000000
86,40	-0,08835	-3,314	-0,06380	-1000000	-1000000	-1000000
86,80	-0,08868	-3,306	-0,06390	-1000000	-1000000	-1000000
87,20	-0,08904	-3,300	-0,06402	-1000000	-1000000	-1000000
87,60	-0,08951	-3,293	-0,06417	-1000000	-1000000	-1000000
88,00	-0,08925	-3,286	-0,06425	-1000000	-1000000	-1000000
88,40	-0,08925	-3,280	-0,06425	-1000000	-1000000	-1000000
88,80	-0,08817	-3,273	-0,06426	-1000000	-1000000	-1000000
89,20	-0,08733	-3,267	-0,06438	-1000000	-1000000	-1000000
89,60	-0,08806	-3,260	-0,06442	-1000000	-1000000	-1000000
90,00	-0,08859	-3,253	-0,06455	-1000000	-1000000	-1000000
90,40	-0,08822	-3,247	-0,06459	-1000000	-1000000	-1000000
90,80	-0,08816	-3,240	-0,06477	-1000000	-1000000	-1000000
91,20	-0,08796	-3,233	-0,06481	-1000000	-1000000	-1000000
91,60	-0,08837	-3,227	-0,06503	-1000000	-1000000	-1000000
92,00	-0,08784	-3,220	-0,06504	-1000000	-1000000	-1000000
92,40	-0,08861	-3,213	-0,06525	-1000000	-1000000	-1000000
92,80	-0,08788	-3,207	-0,06537	-1000000	-1000000	-1000000
93,20	-0,08802	-3,200	-0,06550	-1000000	-1000000	-1000000
93,60	-0,08881	-3,194	-0,06555	-1000000	-1000000	-1000000
94,00	-0,08860	-3,187	-0,06568	-1000000	-1000000	-1000000
94,40	-0,08822	-3,180	-0,06573	-1000000	-1000000	-1000000
94,80	-0,08848	-3,174	-0,06586	-1000000	-1000000	-1000000
95,20	-0,08948	-3,167	-0,06607	-1000000	-1000000	-1000000
95,60	-0,08855	-3,160	-0,06614	-1000000	-1000000	-1000000
96,00	-0,08898	-3,154	-0,06623	-1000000	-1000000	-1000000
96,40	-0,08875	-3,147	-0,06638	-1000000	-1000000	-1000000
96,80	-0,08921	-3,140	-0,06634	-1000000	-1000000	-1000000
97,20	-0,08806	-3,134	-0,06659	-1000000	-1000000	-1000000
97,60	-0,08810	-3,126	-0,06669	-1000000	-1000000	-1000000
98,00	-0,08798	-3,120	-0,06686	-1000000	-1000000	-1000000
98,40	-0,08868	-3,113	-0,06697	-1000000	-1000000	-1000000
98,80	-0,08939	-3,106	-0,06713	-1000000	-1000000	-1000000
99,20	-0,08870	-3,100	-0,06713	-1000000	-1000000	-1000000
99,60	-0,08884	-3,093	-0,06732	-1000000	-1000000	-1000000
100,00	-0,08844	-3,086	-0,06734	-1000000	-1000000	-1000000
100,40	-0,08833	-3,080	-0,06754	-1000000	-1000000	-1000000
100,80	-0,08936	-3,072	-0,06757	-1000000	-1000000	-1000000
101,20	-0,08766	-3,066	-0,06770	-1000000	-1000000	-1000000
101,60	-0,08871	-3,060	-0,06775	-1000000	-1000000	-1000000
102,00	-0,08906	-3,053	-0,06793	-1000000	-1000000	-1000000
102,40	-0,08846	-3,046	-0,06808	-1000000	-1000000	-1000000
102,80	-0,08779	-3,040	-0,06802	-1000000	-1000000	-1000000
103,20	-0,08924	-3,033	-0,06824	-1000000	-1000000	-1000000
103,60	-0,08924	-3,027	-0,06839	-1000000	-1000000	-1000000
104,00	-0,08817	-3,020	-0,06845	-1000000	-1000000	-1000000
104,40	-0,08854	-3,013	-0,06847	-1000000	-1000000	-1000000
104,80	-0,08940	-3,006	-0,06866	-1000000	-1000000	-1000000
105,20	-0,08883	-2,999	-0,06871	-1000000	-1000000	-1000000
105,60	-0,08974	-2,993	-0,06887	-1000000	-1000000	-1000000
106,00	-0,08943	-2,986	-0,06906	-1000000	-1000000	-1000000
106,40	-0,08921	-2,979	-0,06920	-1000000	-1000000	-1000000
106,80	-0,08842	-2,973	-0,06939	-1000000	-1000000	-1000000
107,20	-0,08911	-2,966	-0,06977	-1000000	-1000000	-1000000
107,60	-0,08906	-2,959	-0,06987	-1000000	-1000000	-1000000
108,00	-0,08968	-2,953	-0,06996	-1000000	-1000000	-1000000
108,40	-0,08907	-2,946	-0,07012	-1000000	-1000000	-1000000
108,80	-0,08958	-2,939	-0,07016	-1000000	-1000000	-1000000
109,20	-0,08950	-2,933	-0,07020	-1000000	-1000000	-1000000
109,60	-0,08893	-2,926	-0,07022	-1000000	-1000000	-1000000
110,00	-0,08835	-2,920	-0,07032	-1000000	-1000000	-1000000
110,40	-0,08861	-2,913	-0,07038	-1000000	-1000000	-1000000
110,80	-0,08931	-2,906	-0,07050	-1000000	-1000000	-1000000
111,20	-0,08940	-2,900	-0,07065	-1000000	-1000000	-1000000
111,60	-0,08976	-2,893	-0,07075	-1000000	-1000000	-1000000
112,00	-0,08821	-2,886	-0,07082	-1000000	-1000000	-1000000
112,40	-0,08784	-2,880	-0,07095	-1000000	-1000000	-1000000
112,80	-0,08876	-2,873	-0,07098	-1000000	-1000000	-1000000
113,20	-0,08994	-2,866	-0,07107	-1000000	-1000000	-1000000
113,60	-0,08936	-2,860	-0,07115	-1000000	-1000000	-1000000
114,00	-0,08878	-2,853	-0,07121	-1000000	-1000000	-1000000
114,40	-0,08838	-2,846	-0,07131	-1000000	-1000000	-1000000
114,80	-0,08941	-2,840	-0,07140	-1000000	-1000000	-1000000
115,20	-0,08939	-2,833	-0,07140	-1000000	-1000000	-1000000
115,60	-0,08830	-2,826	-0,07164	-1000000	-1000000	-1000000
116,00	-0,08952	-2,820	-0,07164	-1000000	-1000000	-1000000
116,40	-0,08879	-2,814	-0,07178	-1000000	-1000000	-1000000
116,80	-0,08888	-2,808	-0,07188	-1000000	-1000000	-1000000
117,20	-0,08932	-2,801	-0,07203	-1000000	-1000000	-1000000
117,60	-0,08989	-2,794	-0,07191	-1000000	-1000000	-1000000
118,00	-0,08821	-2,787	-0,07216	-1000000	-1000000	-1000000
118,40	-0,08876	-2,781	-0,07206	-1000000	-1000000	-1000000
118,80	-0,08883	-2,774	-0,07233	-1000000	-1000000	-1000000
119,20	-0,08830	-2,767	-0,07239	-1000000	-1000000	-1000000
119,60	-0,08948	-2,761	-0,07240	-1000000	-1000000	-1000000
120,00	-0,08936	-2,754	-0,07261	-1000000	-1000000	-1000000
120,40	-0,08794	-2,747	-0,07257	-1000000	-1000000	-1000000
120,80	-0,08857	-2,741	-0,07276	-1000000	-1000000	-1000000
121,20	-0,09011	-2,734	-0,07274	-1000000	-1000000	-1000000
121,60	-0,08916	-2,727	-0,07281	-1000000	-1000000	-1000000
122,00	-0,08944	-2,720	-0,07298	-1000000	-1000000	-1000000
122,40	-0,08926	-2,714	-0,07309	-1000000	-1000000	-1000000
122,80	-0,08973	-2,707	-0,07306	-1000000	-1000000	-1000000
123,20	-0,08821	-2,700	-0,07310	-1000000	-1000000	-1000000
123,60	-0,08874	-2,694	-0,07321	-1000000	-1000000	-1000000
124,00	-0,08895	-2,687	-0,07336	-1000000	-1000000	-1000000
124,40	-0,08954	-2,680	-0,07333	-1000000	-1000000	-1000000
124,80	-0,08896	-2,674	-0,07341	-1000000	-1000000	-1000000
125,20	-0,08864	-2,667	-0,07349	-1000000	-1000000	-1000000
125,60	-0,08859	-2,660	-0,07366	-1000000	-1000000	-1000000
126,00	-0,08837	-2,654	-0,07370	-1000000	-1000000	-1000000
126,40	-0,08764	-2,647	-0,07377	-1000000	-1000000	-1000000
126,80	-0,08846	-2,640	-0,07383	-1000000	-1000000	-1000000
127,20	-0,08833	-2,634	-0,07395	-1000000	-1000000	-1000000
127,60	-0,08859	-2,627	-0,07401	-1000000	-1000000	-1000000
128,00	-0,08846	-2,620	-0,07415	-1000000	-1000000	-1000000
128,40	-0,08849	-2,613	-0,07416	-1000000	-1000000	-1000000
128,80	-0,08780	-2,607	-0,07417	-1000000	-1000000	-1000000
129,20	-0,08865	-2,601	-0,07432	-1000000	-1000000	-1000000
129,60	-0,08841	-2,594	-0,07440	-1000000	-1000000	-1000000
130,00	-0,08894	-2,587	-0,07453	-1000000	-1000000	-1000000
130,40	-0,08841	-2,580	-0,07456	-1000000	-1000000	-1000000
130,80	-0,08838	-2,573	-0,07464	-1000000	-1000000	-1000000
131,20	-0,08719	-2,567	-0,07471	-1000000	-1000000	-1000000
131,60	-0,08808	-2,560	-0,07471	-1000000	-1000000	-1000000
132,00	-0,08800	-2,553	-0,07480	-1000000	-1000000	-1000000
132,40	-0,08824	-2,547	-0,07487	-1000000	-1000000	-1000000
132,80	-0,08782	-2,540	-0,07511	-1000000	-1000000	-1000000
133,20	-0,08833	-2,534	-0,07509	-1000000	-1000000	-1000000
133,60	-0,08758	-2,527	-0,07516	-1000000	-1000000	-1000000
134,00	-0,08842	-2,520	-0,07525	-1000000	-1000000	-1000000
134,40	-0,08772	-2,514	-0,07521	-1000000	-1000000	-1000000
134,80	-0,08715	-2,507	-0,07534	-1000000	-1000000	-1000000
135,20	-0,08721	-2,501	-0,07552	-1000000	-1000000	-1000000
135,60	-0,08748	-2,494	-0,07548	-1000000	-1000000	-1000000
136,00	-0,08756	-2,486	-0,07565	-1000000	-1000000	-1000000
136,40	-0,08796	-2,480	-0,07569	-1000000	-1000000	-1000000
136,80	-0,08819	-2,474	-0,07567	-1000000	-1000000	-1000000
137,20	-0,08728	-2,467	-0,07528	-1000000	-1000000	-1000000
137,60	-0,08420	-2,460	-0,07105	-1000000	-1000000	-1000000
138,00	-0,08288	-2,454	-0,06919	-1000000	-1000000	-1000000
138,40	-0,08254	-2,447	-0,06896	-1000000	-1000000	-1000000
138,80	-0,08289	-2,440	-0,06885	-1000000	-1000000	-1000000
139,20	-0,08197	-2,434	-0,06870	-1000000	-1000000	-1000000
139,60	-0,08144	-2,427	-0,06867	-1000000	-1000000	-1000000
140,00	-0,08241	-2,421	-0,06871	-1000000	-1000000	-1000000
140,40	-0,08158	-2,415	-0,06880	-1000000	-1000000	-1000000
140,80	-0,08168	-2,407	-0,06889	-1000000	-1000000	-1000000
141,20	-0,07982	-2,401	-0,06903	-1000000	-1000000	-1000000
141,60	-0,07997	-2,394	-0,06914	-1000000	-1000000	-1000000
142,00	-0,07939	-2,387	-0,06916	-1000000	-1000000	-1000000
142,40	-0,07945	-2,380	-0,06935	-1000000	-1000000	-1000000
142,80	-0,08132	-2,373	-0,06943	-1000000	-1000000	-1000000
143,20	-0,08017	-2,367	-0,06946	-1000000	-1000000	-1000000
143,60	-0,07909	-2,361	-0,06958	-1000000	-1000000	-1000000
144,00	-0,07872	-2,354	-0,06975	-1000000	-1000000	-1000000
144,40	-0,07884	-2,347	-0,06973	-1000000	-1000000	-1000000
144,80	-0,07912	-2,341	-0,06990	-1000000	-1000000	-1000000
145,20	-0,07848	-2,333	-0,06994	-1000000	-1000000	-1000000
145,60	-0,07849	-2,327	-0,06997	-1000000	-1000000	-1000000
146,00	-0,07846	-2,321	-0,07009	-1000000	-1000000	-1000000
146,40	-0,07842	-2,313	-0,07051	-1000000	-1000000	-1000000
146,80	-0,07855	-2,307	-0,07062	-1000000	-1000000	-1000000
147,20	-0,07853	-2,300	-0,07067	-1000000	-1000000	-1000000
147,60	-0,07873	-2,294	-0,07068	-1000000	-1000000	-1000000
148,00	-0,07850	-2,287	-0,07073	-1000000	-1000000	-1000000
148,40	-0,07840	-2,281	-0,07088	-1000000	-1000000	-1000000
148,80	-0,07847	-2,274	-0,07093	-1000000	-1000000	-1000000
149,20	-0,07827	-2,267	-0,07100	-1000000	-1000000	-1000000
149,60	-0,07828	-2,260	-0,07109	-1000000	-1000000	-1000000
150,00	-0,07847	-2,254	-0,07113	-1000000	-1000000	-1000000
150,40	-0,07873	-2,247	-0,07123	-1000000	-1000000	-1000000
150,80	-0,07840	-2,240	-0,07135	-1000000	-1000000	-1000000
151,20	-0,07867	-2,234	-0,07134	-1000000	-1000000	-1000000
151,60	-0,07864	-2,227	-0,07145	-1000000	-1000000	-1000000
152,00	-0,07857	-2,220	-0,07146	-1000000	-1000000	-1000000
152,40	-0,07863	-2,215	-0,07154	-1000000	-1000000	-1000000
152,80	-0,07891	-2,207	-0,07165	-1000000	-1000000	-1000000
153,20	-0,07882	-2,201	-0,07172	-1000000	-1000000	-1000000
153,60	-0,07898	-2,194	-0,07185	-1000000	-1000000	-1000000
154,00	-0,07889	-2,187	-0,07200	-1000000	-1000000	-1000000
154,40	-0,07875	-2,181	-0,07206	-1000000	-1000000	-1000000
154,80	-0,07865	-2,173	-0,07205	-1000000	-1000000	-1000000
155,20	-0,07860	-2,167	-0,07205	-1000000	-1000000	-1000000
155,60	-0,07859	-2,161	-0,07223	-1000000	-1000000	-1000000
156,00	-0,07854	-2,154	-0,07221	-1000000	-1000000	-1000000
156,40	-0,07814	-2,146	-0,07211	-1000000	-1000000	-1000000
156,80	-0,07829	-2,141	-0,07227	-1000000	-1000000	-1000000
157,20	-0,07840	-2,133	-0,07233	-1000000	-1000000	-1000000
157,60	-0,07838	-2,127	-0,07236	-1000000	-1000000	-1000000
158,00	-0,07832	-2,120	-0,07249	-1000000	-1000000	-1000000
158,40	-0,07850	-2,114	-0,07253	-1000000	-1000000	-1000000
158,80	-0,07866	-2,107	-0,07260	-1000000	-1000000	-1000000
159,20	-0,07860	-2,101	-0,07268	-1000000	-1000000	-1000000
159,60	-0,07873	-2,093	-0,07273	-1000000	-1000000	-1000000
160,00	-0,07869	-2,087	-0,07279	-1000000	-1000000	-1000000
160,40	-0,07844	-2,081	-0,07284	-1000000	-1000000	-1000000
160,80	-0,07849	-2,074	-0,07303	-1000000	-1000000	-1000000
161,20	-0,07880	-2,068	-0,07309	-1000000	-1000000	-1000000
161,60	-0,07874	-2,061	-0,07325	-1000000	-1000000	-1000000
162,00	-0,07784	-2,054	-0,07317	-1000000	-1000000	-1000000
162,40	-0,07842	-2,048	-0,07333	-1000000	-1000000	-1000000
162,80	-0,07890	-2,040	-0,07339	-1000000	-1000000	-1000000
163,20	-0,07890	-2,034	-0,07350	-1000000	-1000000	-1000000
163,60	-0,07872	-2,028	-0,07334	-1000000	-1000000	-1000000
164,00	-0,07832	-2,021	-0,07347	-1000000	-1000000	-1000000
164,40	-0,07775	-2,015	-0,07367	-1000000	-1000000	-1000000
164,80	-0,07828	-2,008	-0,07364	-1000000	-1000000	-1000000
165,20	-0,07765	-2,001	-0,07370	-1000000	-1000000	-1000000
165,60	-0,07860	-1,994	-0,07389	-1000000	-1000000	-1000000
166,00	-0,07780	-1,987	-0,07395	-1000000	-1000000	-1000000
166,40	-0,07699	-1,981	-0,07398	-1000000	-1000000	-1000000
166,80	-0,07811	-1,974	-0,07399	-1000000	-1000000	-1000000
167,20	-0,07773	-1,967	-0,07414	-1000000	-1000000	-1000000
167,60	-0,07770	-1,961	-0,07420	-1000000	-1000000	-1000000
168,00	-0,07710	-1,954	-0,07426	-1000000	-1000000	-1000000
168,40	-0,07799	-1,947	-0,07435	-1000000	-1000000	-1000000
168,80	-0,07733	-1,941	-0,07444	-1000000	-1000000	-1000000
169,20	-0,07719	-1,934	-0,07447	-1000000	-1000000	-1000000
169,60	-0,07693	-1,927	-0,07453	-1000000	-1000000	-1000000
170,00	-0,07751	-1,921	-0,07453	-1000000	-1000000	-1000000
170,40	-0,07717	-1,914	-0,07476	-1000000	-1000000	-1000000
170,80	-0,07757	-1,908	-0,07483	-1000000	-1000000	-1000000
171,20	-0,07673	-1,902	-0,07486	-1000000	-1000000	-1000000
171,60	-0,07655	-1,894	-0,07493	-1000000	-1000000	-1000000
172,00	-0,07638	-1,888	-0,07503	-1000000	-1000000	-1000000
172,40	-0,07587	-1,881	-0,07514	-1000000	-1000000	-1000000
172,80	-0,07484	-1,874	-0,07519	-1000000	-1000000	-1000000
173,20	-0,07597	-1,867	-0,07534	-1000000	-1000000	-1000000
173,60	-0,07536	-1,861	-0,07541	-1000000	-1000000	-1000000
174,00	-0,07625	-1,853	-0,07548	-1000000	-1000000	-1000000
174,40	-0,07590	-1,847	-0,07554	-1000000	-1000000	-1000000
174,80	-0,07587	-1,841	-0,07578	-1000000	-1000000	-1000000
175,20	-0,07594	-1,834	-0,07586	-1000000	-1000000	-1000000
175,60	-0,07558	-1,828	-0,07588	-1000000	-1000000	-1000000
176,00	-0,07554	-1,821	-0,07599	-1000000	-1000000	-1000000
176,40	-0,07492	-1,814	-0,07606	-1000000	-1000000	-1000000
176,80	-0,07492	-1,808	-0,07618	-1000000	-1000000	-1000000
177,20	-0,07597	-1,801	-0,07627	-1000000	-1000000	-1000000
177,60	-0,07441	-1,795	-0,07636	-1000000	-1000000	-1000000
178,00	-0,07621	-1,788	-0,07632	-1000000	-1000000	-1000000
178,40	-0,07566	-1,780	-0,07635	-1000000	-1000000	-1000000
178,80	-0,07569	-1,774	-0,07652	-1000000	-1000000	-1000000
179,20	-0,07522	-1,767	-0,07658	-1000000	-1000000	-1000000
179,60	-0,07632	-1,761	-0,07663	-1000000	-1000000	-1000000
180,00	-0,07506	-1,754	-0,07675	-1000000	-1000000	-1000000
180,40	-0,07541	-1,747	-0,07679	-1000000	-1000000	-1000000
180,80	-0,07570	-1,741	-0,07693	-1000000	-1000000	-1000000
181,20	-0,07543	-1,734	-0,07694	-1000000	-1000000	-1000000
181,60	-0,07508	-1,727	-0,07707	-1000000	-1000000	-1000000
182,00	-0,07484	-1,721	-0,07715	-1000000	-1000000	-1000000
182,40	-0,07574	-1,714	-0,07722	-1000000	-1000000	-1000000
182,80	-0,07495	-1,708	-0,07758	-1000000	-1000000	-1000000
183,20	-0,07476	-1,702	-0,07762	-1000000	-1000000	-1000000
183,60	-0,07498	-1,695	-0,07774	-1000000	-1000000	-1000000
184,00	-0,07492	-1,687	-0,07779	-1000000	-1000000	-1000000
184,40	-0,07541	-1,681	-0,07781	-1000000	-1000000	-1000000
184,80	-0,07473	-1,674	-0,07775	-1000000	-1000000	-1000000
185,20	-0,07540	-1,667	-0,07791	-1000000	-1000000	-1000000
185,60	-0,07508	-1,661	-0,07793	-1000000	-1000000	-1000000
186,00	-0,07522	-1,654	-0,07803	-1000000	-1000000	-1000000
186,40	-0,07525	-1,648	-0,07797	-1000000	-1000000	-1000000
186,80	-0,07493	-1,641	-0,07807	-1000000	-1000000	-1000000
187,20	-0,07496	-1,634	-0,07812	-1000000	-1000000	-1000000
187,60	-0,07530	-1,628	-0,07824	-1000000	-1000000	-1000000
188,00	-0,07482	-1,621	-0,07827	-1000000	-1000000	-1000000
188,40	-0,07501	-1,614	-0,07835	-1000000	-1000000	-1000000
188,80	-0,07501	-1,608	-0,07846	-1000000	-1000000	-1000000
189,20	-0,07514	-1,601	-0,07851	-1000000	-1000000	-1000000
189,60	-0,07515	-1,594	-0,07856	-1000000	-1000000	-1000000
190,00	-0,07518	-1,588	-0,07857	-1000000	-1000000	-1000000
190,40	-0,07518	-1,581	-0,07876	-1000000	-1000000	-1000000
190,80	-0,07497	-1,575	-0,07879	-1000000	-1000000	-1000000
191,20	-0,07519	-1,568	-0,07881	-1000000	-1000000	-1000000
191,60	-0,07522	-1,561	-0,07888	-1000000	-1000000	-1000000
192,00	-0,07531	-1,555	-0,07913	-1000000	-1000000	-1000000
192,40	-0,07502	-1,548	-0,07898	-1000000	-1000000	-1000000
192,80	-0,07515	-1,541	-0,07916	-1000000	-1000000	-1000000
193,20	-0,07520	-1,535	-0,07917	-1000000	-1000000	-1000000
193,60	-0,07486	-1,528	-0,07922	-1000000	-1000000	-1000000
194,00	-0,07533	-1,521	-0,07924	-1000000	-1000000	-1000000
194,40	-0,07477	-1,515	-0,07938	-1000000	-1000000	-1000000
194,80	-0,07503	-1,508	-0,07950	-1000000	-1000000	-1000000
195,20	-0,07495	-1,501	-0,07954	-1000000	-1000000	-1000000
195,60	-0,07504	-1,495	-0,07969	-1000000	-1000000	-1000000
196,00	-0,07521	-1,488	-0,07972	-1000000	-1000000	-1000000
196,40	-0,07515	-1,481	-0,07972	-1000000	-1000000	-1000000
196,80	-0,07519	-1,475	-0,07993	-1000000	-1000000	-1000000
197,20	-0,07518	-1,468	-0,08007	-1000000	-1000000	-1000000
197,60	-0,07497	-1,461	-0,08001	-1000000	-1000000	-1000000
198,00	-0,07503	-1,454	-0,08025	-1000000	-1000000	-1000000
198,40	-0,07524	-1,447	-0,08027	-1000000	-1000000	-1000000
198,80	-0,07532	-1,442	-0,08018	-1000000	-1000000	-1000000
199,20	-0,07551	-1,435	-0,08035	-1000000	-1000000	-1000000
199,60	-0,07537	-1,428	-0,08024	-1000000	-1000000	-1000000
200,00	-0,07539	-1,422	-0,08043	-1000000	-1000000	-1000000
200,40	-0,07567	-1,415	-0,08038	-1000000	-1000000	-1000000
200,80	-0,07545	-1,408	-0,08054	-1000000	-1000000	-1000000
201,20	-0,07555	-1,401	-0,08069	-1000000	-1000000	-1000000
201,60	-0,07529	-1,394	-0,08073	-1000000	-1000000	-1000000
202,00	-0,07517	-1,388	-0,08081	-1000000	-1000000	-1000000
202,40	-0,07521	-1,381	-0,08093	-1000000	-1000000	-1000000
202,80	-0,07544	-1,374	-0,08089	-1000000	-1000000	-1000000
203,20	-0,07576	-1,368	-0,08100	-1000000	-1000000	-1000000
203,60	-0,07548	-1,361	-0,08099	-1000000	-1000000	-1000000
204,00	-0,07517	-1,354	-0,08102	-1000000	-1000000	-1000000
204,40	-0,07535	-1,348	-0,08115	-1000000	-1000000	-1000000
204,80	-0,07532	-1,341	-0,08125	-1000000	-1000000	-1000000
205,20	-0,07507	-1,335	-0,08127	-1000000	-1000000	-1000000
205,60	-0,07543	-1,328	-0,08135	-1000000	-1000000	-1000000
206,00	-0,07526	-1,321	-0,08144	-1000000	-1000000	-1000000
206,40	-0,07529	-1,315	-0,08160	-1000000	-1000000	-1000000
206,80	-0,07518	-1,308	-0,08160	-1000000	-1000000	-1000000
207,20	-0,07525	-1,301	-0,08178	-1000000	-1000000	-1000000
207,60	-0,07532	-1,295	-0,08197	-1000000	-1000000	-1000000
208,00	-0,07527	-1,288	-0,08198	-1000000	-1000000	-1000000
208,40	-0,07542	-1,281	-0,08192	-1000000	-1000000	-1000000
208,80	-0,07525	-1,275	-0,08204	-1000000	-1000000	-1000000
209,20	-0,07545	-1,268	-0,08212	-1000000	-1000000	-1000000
209,60	-0,07524	-1,261	-0,08224	-1000000	-1000000	-1000000
210,00	-0,07519	-1,255	-0,08221	-1000000	-1000000	-1000000
210,40	-0,07515	-1,248	-0,08217	-1000000	-1000000	-1000000
210,80	-0,07516	-1,242	-0,08225	-1000000	-1000000	-1000000
211,20	-0,07539	-1,235	-0,08236	-1000000	-1000000	-1000000
211,60	-0,07550	-1,228	-0,08239	-1000000	-1000000	-1000000
212,00	-0,07518	-1,222	-0,08250	-1000000	-1000000	-1000000
212,40	-0,07519	-1,215	-0,08244	-1000000	-1000000	-1000000
212,80	-0,07528	-1,208	-0,08260	-1000000	-1000000	-1000000
213,20	-0,07541	-1,202	-0,08275	-1000000	-1000000	-1000000
213,60	-0,07475	-1,195	-0,08279	-1000000	-1000000	-1000000
214,00	-0,07523	-1,188	-0,08286	-1000000	-1000000	-1000000
214,40	-0,07515	-1,182	-0,08297	-1000000	-1000000	-1000000
214,80	-0,07489	-1,174	-0,08301	-1000000	-1000000	-1000000
215,20	-0,07540	-1,168	-0,08312	-1000000	-1000000	-1000000
215,60	-0,07509	-1,161	-0,08309	-1000000	-1000000	-1000000
216,00	-0,07524	-1,154	-0,08314	-1000000	-1000000	-1000000
216,40	-0,07566	-1,148	-0,08330	-1000000	-1000000	-1000000
216,80	-0,07504	-1,141	-0,08330	-1000000	-1000000	-1000000
217,20	-0,07493	-1,134	-0,08343	-1000000	-1000000	-1000000
217,60	-0,07485	-1,128	-0,08346	-1000000	-1000000	-1000000
218,00	-0,07488	-1,120	-0,08344	-1000000	-1000000	-1000000
218,40	-0,07504	-1,114	-0,08378	-1000000	-1000000	-1000000
218,80	-0,07406	-1,108	-0,08387	-1000000	-1000000	-1000000
219,20	-0,07403	-1,101	-0,08403	-1000000	-1000000	-1000000
219,60	-0,07410	-1,095	-0,08411	-1000000	-1000000	-1000000
220,00	-0,07410	-1,088	-0,08409	-1000000	-1000000	-1000000
220,40	-0,07376	-1,081	-0,08409	-1000000	-1000000	-1000000
220,80	-0,07412	-1,075	-0,08432	-1000000	-1000000	-1000000
221,20	-0,07285	-1,068	-0,08430	-1000000	-1000000	-1000000
221,60	-0,07330	-1,061	-0,08435	-1000000	-1000000	-1000000
222,00	-0,07344	-1,054	-0,08440	-1000000	-1000000	-1000000
222,40	-0,07422	-1,048	-0,08440	-1000000	-1000000	-1000000
222,80	-0,07386	-1,041	-0,08449	-1000000	-1000000	-1000000
223,20	-0,07242	-1,035	-0,08461	-1000000	-1000000	-1000000
223,60	-0,07345	-1,028	-0,08466	-1000000	-1000000	-1000000
224,00	-0,07414	-1,021	-0,08477	-1000000	-1000000	-1000000
224,40	-0,07359	-1,015	-0,08463	-1000000	-1000000	-1000000
224,80	-0,07310	-1,008	-0,08488	-1000000	-1000000	-1000000
225,20	-0,07235	-1,002	-0,08482	-1000000	-1000000	-1000000
225,60	-0,07319	-0,9946	-0,08504	-1000000	-1000000	-1000000
226,00	-0,07334	-0,9882	-0,08506	-1000000	-1000000	-1000000
226,40	-0,07189	-0,9818	-0,08513	-1000000	-1000000	-1000000
226,80	-0,07216	-0,9741	-0,08531	-1000000	-1000000	-1000000
227,20	-0,07283	-0,9681	-0,08531	-1000000	-1000000	-1000000
227,60	-0,07152	-0,9614	-0,08533	-1000000	-1000000	-1000000
228,00	-0,07289	-0,9543	-0,08540	-1000000	-1000000	-1000000
228,40	-0,07241	-0,9480	-0,08540	-1000000	-1000000	-1000000
228,80	-0,07228	-0,9414	-0,08549	-1000000	-1000000	-1000000
229,20	-0,07150	-0,9346	-0,08556	-1000000	-1000000	-1000000
229,60	-0,07080	-0,9286	-0,08554	-1000000	-1000000	-1000000
230,00	-0,07150	-0,9212	-0,08574	-1000000	-1000000	-1000000
230,40	-0,07095	-0,9146	-0,08571	-1000000	-1000000	-1000000
230,80	-0,07141	-0,9086	-0,08580	-1000000	-1000000	-1000000
231,20	-0,07178	-0,9015	-0,08585	-1000000	-1000000	-1000000
231,60	-0,07079	-0,8950	-0,08593	-1000000	-1000000	-1000000
232,00	-0,07055	-0,8882	-0,08591	-1000000	-1000000	-1000000
232,40	-0,07094	-0,8815	-0,08594	-1000000	-1000000	-1000000
232,80	-0,07111	-0,8749	-0,08601	-1000000	-1000000	-1000000
233,20	-0,07076	-0,8682	-0,08603	-1000000	-1000000	-1000000
233,60	-0,07080	-0,8611	-0,08609	-1000000	-1000000	-1000000
234,00	-0,07095	-0,8547	-0,08622	-1000000	-1000000	-1000000
234,40	-0,07052	-0,8478	-0,08632	-1000000	-1000000	-1000000
234,80	-0,07093	-0,8415	-0,08626	-1000000	-1000000	-1000000
235,20	-0,07113	-0,8351	-0,08628	-1000000	-1000000	-1000000
235,60	-0,07096	-0,8278	-0,08627	-1000000	-1000000	-1000000
236,00	-0,07130	-0,8218	-0,08639	-1000000	-1000000	-1000000
236,40	-0,07068	-0,8151	-0,08638	-1000000	-1000000	-1000000
236,80	-0,07073	-0,8082	-0,08641	-1000000	-1000000	-1000000
237,20	-0,07022	-0,8020	-0,08659	-1000000	-1000000	-1000000
237,60	-0,07057	-0,7952	-0,08659	-1000000	-1000000	-1000000
238,00	-0,07058	-0,7878	-0,08659	-1000000	-1000000	-1000000
238,40	-0,07039	-0,7817	-0,08689	-1000000	-1000000	-1000000
238,80	-0,07094	-0,7748	-0,08680	-1000000	-1000000	-1000000
239,20	-0,07070	-0,7681	-0,08685	-1000000	-1000000	-1000000
239,60	-0,07064	-0,7621	-0,08691	-1000000	-1000000	-1000000
240,00	-0,07073	-0,7545	-0,08696	-1000000	-1000000	-1000000
240,40	-0,07043	-0,7479	-0,08705	-1000000	-1000000	-1000000
240,80	-0,07053	-0,7414	-0,08711	-1000000	-1000000	-1000000
241,20	-0,07100	-0,7354	-0,08709	-1000000	-1000000	-1000000
241,60	-0,07058	-0,7292	-0,08725	-1000000	-1000000	-1000000
242,00	-0,07069	-0,7228	-0,08734	-1000000	-1000000	-1000000
242,40	-0,07055	-0,7155	-0,08746	-1000000	-1000000	-1000000
242,80	-0,07082	-0,7091	-0,08746	-1000000	-1000000	-1000000
243,20	-0,07075	-0,7022	-0,08749	-1000000	-1000000	-1000000
243,60	-0,07069	-0,6954	-0,08751	-1000000	-1000000	-1000000
244,00	-0,07055	-0,6888	-0,08762	-1000000	-1000000	-1000000
244,40	-0,07072	-0,6818	-0,08779	-1000000	-1000000	-1000000
244,80	-0,07089	-0,6751	-0,08783	-1000000	-1000000	-1000000
245,20	-0,07057	-0,6688	-0,08777	-1000000	-1000000	-1000000
245,60	-0,07039	-0,6626	-0,08777	-1000000	-1000000	-1000000
246,00	-0,07068	-0,6551	-0,08774	-1000000	-1000000	-1000000
246,40	-0,07069	-0,6489	-0,08772	-1000000	-1000000	-1000000
246,80	-0,07074	-0,6420	-0,08772	-1000000	-1000000	-1000000
247,20	-0,07079	-0,6356	-0,08795	-1000000	-1000000	-1000000
247,60	-0,07075	-0,6289	-0,08795	-1000000	-1000000	-1000000
248,00	-0,07065	-0,6215	-0,08806	-1000000	-1000000	-1000000
248,40	-0,07057	-0,6152	-0,08814	-1000000	-1000000	-1000000
248,80	-0,07075	-0,6088	-0,08821	-1000000	-1000000	-1000000
249,20	-0,07099	-0,6021	-0,08836	-1000000	-1000000	-1000000
249,60	-0,07043	-0,5958	-0,08840	-1000000	-1000000	-1000000
250,00	-0,07023	-0,5884	-0,08848	-1000000	-1000000	-1000000
250,40	-0,07036	-0,5819	-0,08860	-1000000	-1000000	-1000000
250,80	-0,07048	-0,5754	-0,08866	-1000000	-1000000	-1000000
251,20	-0,07042	-0,5686	-0,08869	-1000000	-1000000	-1000000
251,60	-0,07096	-0,5617	-0,08879	-1000000	-1000000	-1000000
252,00	-0,07070	-0,5555	-0,08892	-1000000	-1000000	-1000000
252,40	-0,06986	-0,5490	-0,08889	-1000000	-1000000	-1000000
252,80	-0,07064	-0,5423	-0,08888	-1000000	-1000000	-1000000
253,20	-0,07039	-0,5357	-0,08896	-1000000	-1000000	-1000000
253,60	-0,07030	-0,5286	-0,08908	-1000000	-1000000	-1000000
254,00	-0,07042	-0,5225	-0,08916	-1000000	-1000000	-1000000
254,40	-0,07018	-0,5150	-0,08926	-1000000	-1000000	-1000000
254,80	-0,07049	-0,5085	-0,08938	-1000000	-1000000	-1000000
255,20	-0,07005	-0,5072	-0,08862	-1000000	-1000000	-1000000
255,60	-0,06646	-0,5067	-0,08820	-1000000	-1000000	-1000000
256,00	-0,06634	-0,5067	-0,08810	-1000000	-1000000	-1000000
256,40	-0,06658	-0,5065	-0,08791	-1000000	-1000000	-1000000
256,80	-0,06632	-0,5067	-0,08758	-1000000	-1000000	-1000000
257,20	-0,06646	-0,5065	-0,08742	-1000000	-1000000	-1000000
257,60	-0,06669	-0,5062	-0,08730	-1000000	-1000000	-1000000
258,00	-0,06643	-0,5071	-0,08721	-1000000	-1000000	-1000000
258,40	-0,06648	-0,5066	-0,08712	-1000000	-1000000	-1000000
258,80	-0,06644	-0,5069	-0,08705	-1000000	-1000000	-1000000
259,20	-0,06640	-0,5062	-0,08688	-1000000	-1000000	-1000000
259,60	-0,06655	-0,5067	-0,08700	-1000000	-1000000	-1000000
260,00	-0,06655	-0,5063	-0,08691	-1000000	-1000000	-1000000
260,40	-0,06643	-0,5069	-0,08685	-1000000	-1000000	-1000000
260,80	-0,06647	-0,5065	-0,08688	-1000000	-1000000	-1000000
261,20	-0,06585	-0,5066	-0,08690	-1000000	-1000000	-1000000
261,60	-0,06414	-0,5063	-0,08688	-1000000	-1000000	-1000000
262,00	-0,06323	-0,5063	-0,08683	-1000000	-1000000	-1000000