File: notebooks/experimental_tests/results/carbon_tensile_tests/F2.txt
Zeit  1 - Standardmessrate [s]	Kraft [kN]	Weg [mm]	DD1 [Prom]	PMX_1 CH 3-2 [µm/m]	PMX_1 CH 3-3 [mm]	PMX_1 CH 3-4 [mm]
0	-0,01863	0,00034	0,000	-1000000	-1000000	-1000000
1,200	-0,01988	0,00094	0,00014	-1000000	-1000000	-1000000
2,400	-0,01976	0,00093	0,00028	-1000000	-1000000	-1000000
3,600	-0,02903	0,01521	-0,01970	-1000000	-1000000	-1000000
4,800	-0,04866	0,03466	-0,05574	-1000000	-1000000	-1000000
6,000	-0,06095	0,05498	-0,08086	-1000000	-1000000	-1000000
7,200	-0,07453	0,07512	-0,1061	-1000000	-1000000	-1000000
8,400	-0,09045	0,09504	-0,1320	-1000000	-1000000	-1000000
9,600	-0,1067	0,1157	-0,1575	-1000000	-1000000	-1000000
10,80	-0,1251	0,1356	-0,1843	-1000000	-1000000	-1000000
12,00	-0,1448	0,1555	-0,2130	-1000000	-1000000	-1000000
13,20	-0,1660	0,1755	-0,2422	-1000000	-1000000	-1000000
14,40	-0,1880	0,1950	-0,2726	-1000000	-1000000	-1000000
15,60	-0,2095	0,2149	-0,3017	-1000000	-1000000	-1000000
16,80	-0,2283	0,2348	-0,3243	-1000000	-1000000	-1000000
18,00	-0,2405	0,2548	-0,3399	-1000000	-1000000	-1000000
19,20	-0,2545	0,2745	-0,3577	-1000000	-1000000	-1000000
20,40	-0,2578	0,2946	-0,3621	-1000000	-1000000	-1000000
21,60	-0,2644	0,3151	-0,3690	-1000000	-1000000	-1000000
22,80	-0,2654	0,3356	-0,3710	-1000000	-1000000	-1000000
24,00	-0,2651	0,3549	-0,3719	-1000000	-1000000	-1000000
25,20	-0,2661	0,3756	-0,3729	-1000000	-1000000	-1000000
26,40	-0,2690	0,3954	-0,3745	-1000000	-1000000	-1000000
27,60	-0,2693	0,4143	-0,3776	-1000000	-1000000	-1000000
28,80	-0,2743	0,4348	-0,3840	-1000000	-1000000	-1000000
30,00	-0,2854	0,4550	-0,3959	-1000000	-1000000	-1000000
31,20	-0,2872	0,4749	-0,3998	-1000000	-1000000	-1000000
32,40	-0,2933	0,4950	-0,4067	-1000000	-1000000	-1000000
33,60	-0,3139	0,5154	-0,4335	-1000000	-1000000	-1000000
34,80	-0,3301	0,5357	-0,4537	-1000000	-1000000	-1000000
36,00	-0,3343	0,5553	-0,4593	-1000000	-1000000	-1000000
37,20	-0,3383	0,5754	-0,4638	-1000000	-1000000	-1000000
38,40	-0,3419	0,5955	-0,4675	-1000000	-1000000	-1000000
39,60	-0,3424	0,6157	-0,4704	-1000000	-1000000	-1000000
40,80	-0,3522	0,6351	-0,4820	-1000000	-1000000	-1000000
42,00	-0,3819	0,6552	-0,5187	-1000000	-1000000	-1000000
43,20	-0,4094	0,6752	-0,5541	-1000000	-1000000	-1000000
44,40	-0,4346	0,6950	-0,5838	-1000000	-1000000	-1000000
45,60	-0,4566	0,7152	-0,6110	-1000000	-1000000	-1000000
46,80	-0,4707	0,7351	-0,6295	-1000000	-1000000	-1000000
48,00	-0,4934	0,7542	-0,6562	-1000000	-1000000	-1000000
49,20	-0,5204	0,7746	-0,6897	-1000000	-1000000	-1000000
50,40	-0,5500	0,7943	-0,7264	-1000000	-1000000	-1000000
51,60	-0,4991	0,8144	-0,6610	-1000000	-1000000	-1000000
52,80	-0,5464	0,8348	-0,7175	-1000000	-1000000	-1000000
54,00	-0,5884	0,8544	-0,7692	-1000000	-1000000	-1000000
55,20	-0,6252	0,8749	-0,8150	-1000000	-1000000	-1000000
56,40	-0,6592	0,8950	-0,8565	-1000000	-1000000	-1000000
57,60	-0,6935	0,9146	-0,8984	-1000000	-1000000	-1000000
58,80	-0,7321	0,9344	-0,9455	-1000000	-1000000	-1000000
60,00	-0,7654	0,9543	-0,9865	-1000000	-1000000	-1000000
61,20	-0,8040	0,9750	-1,033	-1000000	-1000000	-1000000
62,40	-0,8445	0,9945	-1,082	-1000000	-1000000	-1000000
63,60	-0,8798	1,014	-1,125	-1000000	-1000000	-1000000
64,80	-0,9177	1,035	-1,172	-1000000	-1000000	-1000000
66,00	-0,9587	1,055	-1,221	-1000000	-1000000	-1000000
67,20	-0,9970	1,074	-1,267	-1000000	-1000000	-1000000
68,40	-1,041	1,094	-1,320	-1000000	-1000000	-1000000
69,60	-1,080	1,115	-1,367	-1000000	-1000000	-1000000
70,80	-1,120	1,135	-1,416	-1000000	-1000000	-1000000
72,00	-1,162	1,154	-1,467	-1000000	-1000000	-1000000
73,20	-1,204	1,174	-1,517	-1000000	-1000000	-1000000
74,40	-1,247	1,195	-1,568	-1000000	-1000000	-1000000
75,60	-1,289	1,214	-1,619	-1000000	-1000000	-1000000
76,80	-1,332	1,234	-1,671	-1000000	-1000000	-1000000
78,00	-1,374	1,254	-1,721	-1000000	-1000000	-1000000
79,20	-1,416	1,274	-1,772	-1000000	-1000000	-1000000
80,40	-1,461	1,295	-1,826	-1000000	-1000000	-1000000
81,60	-1,507	1,314	-1,880	-1000000	-1000000	-1000000
82,80	-1,553	1,334	-1,934	-1000000	-1000000	-1000000
84,00	-1,596	1,354	-1,987	-1000000	-1000000	-1000000
85,20	-1,640	1,374	-2,038	-1000000	-1000000	-1000000
86,40	-1,685	1,393	-2,092	-1000000	-1000000	-1000000
87,60	-1,730	1,414	-2,146	-1000000	-1000000	-1000000
88,80	-1,777	1,434	-2,200	-1000000	-1000000	-1000000
90,00	-1,821	1,454	-2,253	-1000000	-1000000	-1000000
91,20	-1,865	1,474	-2,306	-1000000	-1000000	-1000000
92,40	-1,911	1,494	-2,361	-1000000	-1000000	-1000000
93,60	-1,959	1,515	-2,416	-1000000	-1000000	-1000000
94,80	-2,004	1,534	-2,471	-1000000	-1000000	-1000000
96,00	-2,050	1,554	-2,525	-1000000	-1000000	-1000000
97,20	-2,096	1,574	-2,579	-1000000	-1000000	-1000000
98,40	-2,142	1,594	-2,633	-1000000	-1000000	-1000000
99,60	-2,189	1,614	-2,688	-1000000	-1000000	-1000000
100,80	-2,235	1,634	-2,742	-1000000	-1000000	-1000000
102,00	-2,283	1,654	-2,798	-1000000	-1000000	-1000000
103,20	-2,330	1,674	-2,853	-1000000	-1000000	-1000000
104,40	-2,378	1,694	-2,909	-1000000	-1000000	-1000000
105,60	-2,425	1,714	-2,964	-1000000	-1000000	-1000000
106,80	-2,471	1,734	-3,018	-1000000	-1000000	-1000000
108,00	-2,518	1,754	-3,073	-1000000	-1000000	-1000000
109,20	-2,566	1,774	-3,128	-1000000	-1000000	-1000000
110,40	-2,614	1,795	-3,185	-1000000	-1000000	-1000000
111,60	-2,662	1,814	-3,240	-1000000	-1000000	-1000000
112,80	-2,709	1,834	-3,296	-1000000	-1000000	-1000000
114,00	-2,758	1,854	-3,351	-1000000	-1000000	-1000000
115,20	-2,807	1,874	-3,407	-1000000	-1000000	-1000000
116,40	-2,855	1,893	-3,464	-1000000	-1000000	-1000000
117,60	-2,903	1,913	-3,519	-1000000	-1000000	-1000000
118,80	-2,951	1,933	-3,574	-1000000	-1000000	-1000000
120,00	-2,999	1,954	-3,630	-1000000	-1000000	-1000000
121,20	-3,047	1,973	-3,686	-1000000	-1000000	-1000000
122,40	-3,095	1,993	-3,739	-1000000	-1000000	-1000000
123,60	-3,144	2,014	-3,795	-1000000	-1000000	-1000000
124,80	-3,193	2,034	-3,852	-1000000	-1000000	-1000000
126,00	-3,243	2,054	-3,909	-1000000	-1000000	-1000000
127,20	-3,294	2,074	-3,967	-1000000	-1000000	-1000000
128,40	-3,345	2,093	-4,025	-1000000	-1000000	-1000000
129,60	-3,396	2,113	-4,083	-1000000	-1000000	-1000000
130,80	-3,447	2,134	-4,141	-1000000	-1000000	-1000000
132,00	-3,498	2,154	-4,198	-1000000	-1000000	-1000000
133,20	-3,548	2,174	-4,256	-1000000	-1000000	-1000000
134,40	-3,600	2,194	-4,314	-1000000	-1000000	-1000000
135,60	-3,651	2,214	-4,372	-1000000	-1000000	-1000000
136,80	-3,702	2,234	-4,429	-1000000	-1000000	-1000000
138,00	-3,752	2,254	-4,487	-1000000	-1000000	-1000000
139,20	-3,803	2,274	-4,544	-1000000	-1000000	-1000000
140,40	-3,854	2,293	-4,602	-1000000	-1000000	-1000000
141,60	-3,905	2,313	-4,660	-1000000	-1000000	-1000000
142,80	-3,955	2,333	-4,716	-1000000	-1000000	-1000000
144,00	-4,001	2,353	-4,768	-1000000	-1000000	-1000000
145,20	-4,047	2,374	-4,820	-1000000	-1000000	-1000000
146,40	-4,097	2,394	-4,877	-1000000	-1000000	-1000000
147,60	-4,147	2,414	-4,934	-1000000	-1000000	-1000000
148,80	-4,199	2,434	-4,990	-1000000	-1000000	-1000000
150,00	-4,249	2,454	-5,047	-1000000	-1000000	-1000000
151,20	-4,299	2,474	-5,104	-1000000	-1000000	-1000000
152,40	-4,351	2,494	-5,161	-1000000	-1000000	-1000000
153,60	-4,402	2,514	-5,218	-1000000	-1000000	-1000000
154,80	-4,454	2,534	-5,274	-1000000	-1000000	-1000000
156,00	-4,503	2,553	-5,330	-1000000	-1000000	-1000000
157,20	-4,559	2,574	-5,387	-1000000	-1000000	-1000000
158,40	-4,610	2,594	-5,444	-1000000	-1000000	-1000000
159,60	-4,659	2,614	-5,500	-1000000	-1000000	-1000000
160,80	-4,709	2,634	-5,556	-1000000	-1000000	-1000000
162,00	-4,760	2,654	-5,611	-1000000	-1000000	-1000000
163,20	-4,810	2,674	-5,667	-1000000	-1000000	-1000000
164,40	-4,858	2,694	-5,720	-1000000	-1000000	-1000000
165,60	-4,907	2,714	-5,773	-1000000	-1000000	-1000000
166,80	-4,958	2,733	-5,829	-1000000	-1000000	-1000000
168,00	-5,009	2,753	-5,886	-1000000	-1000000	-1000000
169,20	-5,061	2,773	-5,943	-1000000	-1000000	-1000000
170,40	-5,114	2,793	-6,001	-1000000	-1000000	-1000000
171,60	-5,166	2,813	-6,058	-1000000	-1000000	-1000000
172,80	-5,219	2,833	-6,116	-1000000	-1000000	-1000000
174,00	-5,271	2,853	-6,173	-1000000	-1000000	-1000000
175,20	-5,324	2,873	-6,231	-1000000	-1000000	-1000000
176,40	-5,377	2,893	-6,289	-1000000	-1000000	-1000000
177,60	-5,430	2,913	-6,347	-1000000	-1000000	-1000000
178,80	-5,484	2,932	-6,406	-1000000	-1000000	-1000000
180,00	-5,539	2,952	-6,466	-1000000	-1000000	-1000000
181,20	-5,595	2,973	-6,528	-1000000	-1000000	-1000000
182,40	-5,637	2,993	-6,576	-1000000	-1000000	-1000000
183,60	-5,666	3,012	-6,617	-1000000	-1000000	-1000000
184,80	-5,721	3,033	-6,677	-1000000	-1000000	-1000000
186,00	-5,777	3,053	-6,738	-1000000	-1000000	-1000000
187,20	-5,833	3,072	-6,800	-1000000	-1000000	-1000000
188,40	-5,890	3,093	-6,861	-1000000	-1000000	-1000000
189,60	-5,946	3,112	-6,922	-1000000	-1000000	-1000000
190,80	-6,001	3,133	-6,983	-1000000	-1000000	-1000000
192,00	-6,058	3,153	-7,044	-1000000	-1000000	-1000000
193,20	-6,114	3,172	-7,105	-1000000	-1000000	-1000000
194,40	-6,170	3,193	-7,167	-1000000	-1000000	-1000000
195,60	-6,227	3,212	-7,228	-1000000	-1000000	-1000000
196,80	-6,283	3,232	-7,288	-1000000	-1000000	-1000000
198,00	-6,340	3,252	-7,349	-1000000	-1000000	-1000000
199,20	-6,396	3,273	-7,410	-1000000	-1000000	-1000000
200,40	-6,452	3,293	-7,471	-1000000	-1000000	-1000000
201,60	-6,509	3,312	-7,532	-1000000	-1000000	-1000000
202,80	-6,565	3,332	-7,592	-1000000	-1000000	-1000000
204,00	-6,622	3,353	-7,653	-1000000	-1000000	-1000000
205,20	-6,679	3,373	-7,714	-1000000	-1000000	-1000000
206,40	-6,528	3,393	-7,477	-1000000	-1000000	-1000000
207,60	-6,574	3,413	-7,526	-1000000	-1000000	-1000000
208,80	-6,626	3,433	-7,583	-1000000	-1000000	-1000000
210,00	-6,680	3,452	-7,641	-1000000	-1000000	-1000000
211,20	-6,734	3,473	-7,699	-1000000	-1000000	-1000000
212,40	-6,784	3,492	-7,753	-1000000	-1000000	-1000000
213,60	-6,835	3,512	-7,807	-1000000	-1000000	-1000000
214,80	-6,887	3,533	-7,863	-1000000	-1000000	-1000000
216,00	-6,940	3,553	-7,920	-1000000	-1000000	-1000000
217,20	-6,994	3,573	-7,978	-1000000	-1000000	-1000000
218,40	-7,048	3,594	-8,035	-1000000	-1000000	-1000000
219,60	-7,101	3,613	-8,092	-1000000	-1000000	-1000000
220,80	-7,154	3,633	-8,149	-1000000	-1000000	-1000000
222,00	-7,208	3,652	-8,207	-1000000	-1000000	-1000000
223,20	-7,262	3,672	-8,264	-1000000	-1000000	-1000000
224,40	-7,317	3,693	-8,322	-1000000	-1000000	-1000000
225,60	-7,372	3,712	-8,380	-1000000	-1000000	-1000000
226,80	-7,426	3,732	-8,438	-1000000	-1000000	-1000000
228,00	-7,476	3,753	-8,491	-1000000	-1000000	-1000000
229,20	-7,529	3,773	-8,547	-1000000	-1000000	-1000000
230,40	-7,583	3,793	-8,604	-1000000	-1000000	-1000000
231,60	-7,637	3,813	-8,661	-1000000	-1000000	-1000000
232,80	-7,690	3,833	-8,717	-1000000	-1000000	-1000000
234,00	-7,745	3,853	-8,774	-1000000	-1000000	-1000000
235,20	-7,799	3,873	-8,832	-1000000	-1000000	-1000000
236,40	-7,853	3,893	-8,889	-1000000	-1000000	-1000000
237,60	-7,907	3,913	-8,946	-1000000	-1000000	-1000000
238,80	-7,961	3,933	-9,003	-1000000	-1000000	-1000000
240,00	-8,015	3,953	-9,059	-1000000	-1000000	-1000000
241,20	-8,069	3,971	-9,116	-1000000	-1000000	-1000000
242,40	-8,124	3,992	-9,174	-1000000	-1000000	-1000000
243,60	-8,178	4,012	-9,231	-1000000	-1000000	-1000000
244,80	-8,232	4,032	-9,287	-1000000	-1000000	-1000000
246,00	-8,285	4,052	-9,344	-1000000	-1000000	-1000000
247,20	-8,340	4,072	-9,401	-1000000	-1000000	-1000000
248,40	-8,395	4,092	-9,458	-1000000	-1000000	-1000000
249,60	-8,450	4,113	-9,515	-1000000	-1000000	-1000000
250,80	-8,505	4,132	-9,572	-1000000	-1000000	-1000000
252,00	-8,558	4,152	-9,628	-1000000	-1000000	-1000000
253,20	-8,613	4,171	-9,686	-1000000	-1000000	-1000000
254,40	-8,636	4,184	-9,708	-1000000	-1000000	-1000000
255,60	-8,626	4,184	-9,699	-1000000	-1000000	-1000000
256,80	-8,618	4,183	-9,691	-1000000	-1000000	-1000000
258,00	-8,612	4,184	-9,684	-1000000	-1000000	-1000000
259,20	-8,590	4,183	-9,656	-1000000	-1000000	-1000000
260,40	-8,577	4,184	-9,340	-1000000	-1000000	-1000000
261,60	-8,568	4,183	-17,53	-1000000	-1000000	-1000000
262,80	-8,560	4,184	-23,93	-1000000	-1000000	-1000000
264,00	-8,552	4,184	-28,47	-1000000	-1000000	-1000000
265,20	-8,544	4,184	-28,44	-1000000	-1000000	-1000000
266,40	-8,539	4,183	-14,39	-1000000	-1000000	-1000000
267,60	-8,532	4,184	2,241	-1000000	-1000000	-1000000
268,80	-8,527	4,184	1,325	-1000000	-1000000	-1000000
270,00	-8,520	4,184	1,094	-1000000	-1000000	-1000000
271,20	-8,518	4,184	0,4043	-1000000	-1000000	-1000000
272,40	-8,512	4,184	1,617	-1000000	-1000000	-1000000
273,60	-8,508	4,184	0,4931	-1000000	-1000000	-1000000
274,80	-8,505	4,183	0,2193	-1000000	-1000000	-1000000
276,00	-8,503	4,183	0,8636	-1000000	-1000000	-1000000
277,20	-8,499	4,184	0,7226	-1000000	-1000000	-1000000
278,40	-8,495	4,184	0,7207	-1000000	-1000000	-1000000
279,60	-8,492	4,184	0,7213	-1000000	-1000000	-1000000
280,80	-8,490	4,184	0,7219	-1000000	-1000000	-1000000
282,00	-8,487	4,183	0,7224	-1000000	-1000000	-1000000
283,20	-8,484	4,183	0,7229	-1000000	-1000000	-1000000
284,40	-8,482	4,184	0,7234	-1000000	-1000000	-1000000
285,60	-8,479	4,184	0,7238	-1000000	-1000000	-1000000
286,80	-8,476	4,184	0,7241	-1000000	-1000000	-1000000
288,00	-8,475	4,184	0,7244	-1000000	-1000000	-1000000
289,20	-8,471	4,184	0,7248	-1000000	-1000000	-1000000
290,40	-8,471	4,184	0,7251	-1000000	-1000000	-1000000
291,60	-8,467	4,184	0,7253	-1000000	-1000000	-1000000
292,80	-8,466	4,183	0,7256	-1000000	-1000000	-1000000
294,00	-8,462	4,184	0,7258	-1000000	-1000000	-1000000
295,20	-8,462	4,184	0,7261	-1000000	-1000000	-1000000
296,40	-8,458	4,184	0,7264	-1000000	-1000000	-1000000
297,60	-8,458	4,184	0,7266	-1000000	-1000000	-1000000
298,80	-8,455	4,184	0,7267	-1000000	-1000000	-1000000
300,00	-8,454	4,184	0,7269	-1000000	-1000000	-1000000
301,20	-8,451	4,184	0,7272	-1000000	-1000000	-1000000
302,40	-8,451	4,184	0,7274	-1000000	-1000000	-1000000
303,60	-8,449	4,184	0,7275	-1000000	-1000000	-1000000
304,80	-8,446	4,184	0,7275	-1000000	-1000000	-1000000
306,00	-8,446	4,184	0,7278	-1000000	-1000000	-1000000
307,20	-8,443	4,184	0,7280	-1000000	-1000000	-1000000
308,40	-8,442	4,184	0,7281	-1000000	-1000000	-1000000
309,60	-8,440	4,184	0,7282	-1000000	-1000000	-1000000
310,80	-8,438	4,184	0,7283	-1000000	-1000000	-1000000
312,00	-8,493	4,200	0,7285	-1000000	-1000000	-1000000
313,20	-8,558	4,220	0,7286	-1000000	-1000000	-1000000
314,40	-8,620	4,240	0,7288	-1000000	-1000000	-1000000
315,60	-8,684	4,260	0,7290	-1000000	-1000000	-1000000
316,80	-8,746	4,279	0,7290	-1000000	-1000000	-1000000
318,00	-8,807	4,298	0,7292	-1000000	-1000000	-1000000
319,20	-8,867	4,318	0,7292	-1000000	-1000000	-1000000
320,40	-8,926	4,339	0,7294	-1000000	-1000000	-1000000
321,60	-8,986	4,359	0,7295	-1000000	-1000000	-1000000
322,80	-9,045	4,379	0,7296	-1000000	-1000000	-1000000
324,00	-9,108	4,399	0,7298	-1000000	-1000000	-1000000
325,20	-9,165	4,420	0,7298	-1000000	-1000000	-1000000
326,40	-9,222	4,440	0,7298	-1000000	-1000000	-1000000
327,60	-9,278	4,460	0,7299	-1000000	-1000000	-1000000
328,80	-9,336	4,480	0,7299	-1000000	-1000000	-1000000
330,00	-9,390	4,499	0,7301	-1000000	-1000000	-1000000
331,20	-9,446	4,519	0,7301	-1000000	-1000000	-1000000
332,40	-9,501	4,539	0,7304	-1000000	-1000000	-1000000
333,60	-9,556	4,559	0,7303	-1000000	-1000000	-1000000
334,80	-9,611	4,579	0,7305	-1000000	-1000000	-1000000
336,00	-9,666	4,599	0,7305	-1000000	-1000000	-1000000
337,20	-9,720	4,619	0,7306	-1000000	-1000000	-1000000
338,40	-9,773	4,639	0,7307	-1000000	-1000000	-1000000
339,60	-9,820	4,659	0,7307	-1000000	-1000000	-1000000
340,80	-9,871	4,679	0,7308	-1000000	-1000000	-1000000
342,00	-9,924	4,699	0,7308	-1000000	-1000000	-1000000
343,20	-9,976	4,719	0,7309	-1000000	-1000000	-1000000
344,40	-10,03	4,739	0,7310	-1000000	-1000000	-1000000
345,60	-10,08	4,759	0,7311	-1000000	-1000000	-1000000
346,80	-10,13	4,779	0,7311	-1000000	-1000000	-1000000
348,00	-10,18	4,799	0,7312	-1000000	-1000000	-1000000
349,20	-10,24	4,819	0,7312	-1000000	-1000000	-1000000
350,40	-10,29	4,839	0,7313	-1000000	-1000000	-1000000
351,60	-10,34	4,859	0,7314	-1000000	-1000000	-1000000
352,80	-10,39	4,880	0,7313	-1000000	-1000000	-1000000
354,00	-10,44	4,899	0,7315	-1000000	-1000000	-1000000
355,20	-10,50	4,919	0,7316	-1000000	-1000000	-1000000
356,40	-10,55	4,939	0,7315	-1000000	-1000000	-1000000
357,60	-10,60	4,959	0,7316	-1000000	-1000000	-1000000
358,80	-10,65	4,979	0,7317	-1000000	-1000000	-1000000
360,00	-10,71	4,999	0,7318	-1000000	-1000000	-1000000
361,20	-10,76	5,018	0,7318	-1000000	-1000000	-1000000
362,40	-10,81	5,039	0,7318	-1000000	-1000000	-1000000
363,60	-10,86	5,059	0,7319	-1000000	-1000000	-1000000
364,80	-10,91	5,078	0,7320	-1000000	-1000000	-1000000
366,00	-10,97	5,098	0,7321	-1000000	-1000000	-1000000
367,20	-11,02	5,119	0,7321	-1000000	-1000000	-1000000
368,40	-11,07	5,139	0,7321	-1000000	-1000000	-1000000
369,60	-11,12	5,159	0,7322	-1000000	-1000000	-1000000
370,80	-11,17	5,179	0,7321	-1000000	-1000000	-1000000
372,00	-11,22	5,198	0,7322	-1000000	-1000000	-1000000
373,20	-11,27	5,219	0,7323	-1000000	-1000000	-1000000
374,40	-11,32	5,239	0,7323	-1000000	-1000000	-1000000
375,60	-11,38	5,258	0,7324	-1000000	-1000000	-1000000
376,80	-11,43	5,279	0,7324	-1000000	-1000000	-1000000
378,00	-11,48	5,299	0,7325	-1000000	-1000000	-1000000
379,20	-11,53	5,319	0,7325	-1000000	-1000000	-1000000
380,40	-11,58	5,342	0,7325	-1000000	-1000000	-1000000
381,60	-11,63	5,364	0,7326	-1000000	-1000000	-1000000
382,80	-11,68	5,383	0,7326	-1000000	-1000000	-1000000
384,00	-11,73	5,403	0,7326	-1000000	-1000000	-1000000
385,20	-11,78	5,423	0,7326	-1000000	-1000000	-1000000
386,40	-11,83	5,443	0,7328	-1000000	-1000000	-1000000
387,60	-11,88	5,463	0,7329	-1000000	-1000000	-1000000
388,80	-11,93	5,483	0,7328	-1000000	-1000000	-1000000
390,00	-11,98	5,503	0,7329	-1000000	-1000000	-1000000
391,20	-12,03	5,523	0,7329	-1000000	-1000000	-1000000
392,40	-12,08	5,543	0,7329	-1000000	-1000000	-1000000
393,60	-12,13	5,563	0,7330	-1000000	-1000000	-1000000
394,80	-12,18	5,584	0,7330	-1000000	-1000000	-1000000
396,00	-12,23	5,603	0,7331	-1000000	-1000000	-1000000
397,20	-12,28	5,623	0,7330	-1000000	-1000000	-1000000
398,40	-12,33	5,643	0,7331	-1000000	-1000000	-1000000
399,60	-10,92	5,663	0,7330	-1000000	-1000000	-1000000
400,80	-11,00	5,683	0,7332	-1000000	-1000000	-1000000
402,00	-11,07	5,703	0,7332	-1000000	-1000000	-1000000
403,20	-11,14	5,724	0,7332	-1000000	-1000000	-1000000
404,40	-11,21	5,743	0,7333	-1000000	-1000000	-1000000
405,60	-11,28	5,763	0,7333	-1000000	-1000000	-1000000
406,80	-11,35	5,784	0,7333	-1000000	-1000000	-1000000
408,00	-11,42	5,804	0,7333	-1000000	-1000000	-1000000
409,20	-11,49	5,824	0,7334	-1000000	-1000000	-1000000
410,40	-11,56	5,844	0,7333	-1000000	-1000000	-1000000
411,60	-11,63	5,864	0,7334	-1000000	-1000000	-1000000
412,80	-11,70	5,884	0,7334	-1000000	-1000000	-1000000
414,00	-11,77	5,904	0,7336	-1000000	-1000000	-1000000
415,20	-11,83	5,923	0,7336	-1000000	-1000000	-1000000
416,40	-11,90	5,944	0,7335	-1000000	-1000000	-1000000
417,60	-11,96	5,964	0,7336	-1000000	-1000000	-1000000
418,80	-12,03	5,983	0,7336	-1000000	-1000000	-1000000
420,00	-12,10	6,003	0,7337	-1000000	-1000000	-1000000
421,20	-12,16	6,023	0,7338	-1000000	-1000000	-1000000
422,40	-12,22	6,044	0,7338	-1000000	-1000000	-1000000
423,60	-12,28	6,063	0,7338	-1000000	-1000000	-1000000
424,80	-12,34	6,082	0,7339	-1000000	-1000000	-1000000
426,00	-12,41	6,103	0,7339	-1000000	-1000000	-1000000
427,20	-12,47	6,123	0,7337	-1000000	-1000000	-1000000
428,40	-12,53	6,143	0,7338	-1000000	-1000000	-1000000
429,60	-12,59	6,163	0,7338	-1000000	-1000000	-1000000
430,80	-12,64	6,183	0,7339	-1000000	-1000000	-1000000
432,00	-12,70	6,202	0,7339	-1000000	-1000000	-1000000
433,20	-12,76	6,223	0,7340	-1000000	-1000000	-1000000
434,40	-12,82	6,242	0,7340	-1000000	-1000000	-1000000
435,60	-12,87	6,263	0,7340	-1000000	-1000000	-1000000
436,80	-12,93	6,283	0,7340	-1000000	-1000000	-1000000
438,00	-12,98	6,303	0,7340	-1000000	-1000000	-1000000
439,20	-13,04	6,323	0,7340	-1000000	-1000000	-1000000
440,40	-13,09	6,343	0,7340	-1000000	-1000000	-1000000
441,60	-13,15	6,363	0,7341	-1000000	-1000000	-1000000
442,80	-13,20	6,383	0,7343	-1000000	-1000000	-1000000
444,00	-13,25	6,402	0,7342	-1000000	-1000000	-1000000
445,20	-13,31	6,422	0,7341	-1000000	-1000000	-1000000
446,40	-13,36	6,443	0,7341	-1000000	-1000000	-1000000
447,60	-13,40	6,463	0,7343	-1000000	-1000000	-1000000
448,80	-13,46	6,483	0,7343	-1000000	-1000000	-1000000
450,00	-13,51	6,503	0,7342	-1000000	-1000000	-1000000
451,20	-13,55	6,523	0,7343	-1000000	-1000000	-1000000
452,40	-13,60	6,543	0,7343	-1000000	-1000000	-1000000
453,60	-13,65	6,562	0,7343	-1000000	-1000000	-1000000
454,80	-13,67	6,583	0,7344	-1000000	-1000000	-1000000
456,00	-13,71	6,602	0,7345	-1000000	-1000000	-1000000
457,20	-13,76	6,622	0,7344	-1000000	-1000000	-1000000
458,40	-13,81	6,642	0,7344	-1000000	-1000000	-1000000
459,60	-13,85	6,661	0,7344	-1000000	-1000000	-1000000
460,80	-13,90	6,682	0,7344	-1000000	-1000000	-1000000
462,00	-13,94	6,703	0,7345	-1000000	-1000000	-1000000
463,20	-13,99	6,723	0,7346	-1000000	-1000000	-1000000
464,40	-14,03	6,742	0,7345	-1000000	-1000000	-1000000
465,60	-14,07	6,762	0,7346	-1000000	-1000000	-1000000
466,80	-14,11	6,782	0,7346	-1000000	-1000000	-1000000
468,00	-14,16	6,801	0,7346	-1000000	-1000000	-1000000
469,20	-14,20	6,822	0,7346	-1000000	-1000000	-1000000
470,40	-14,24	6,841	0,7346	-1000000	-1000000	-1000000
471,60	-14,28	6,861	0,7347	-1000000	-1000000	-1000000
472,80	-14,32	6,881	0,7347	-1000000	-1000000	-1000000
474,00	-11,32	6,901	0,7348	-1000000	-1000000	-1000000
475,20	-11,40	6,922	0,7347	-1000000	-1000000	-1000000
476,40	-11,48	6,942	0,7348	-1000000	-1000000	-1000000
477,60	-11,55	6,962	0,7349	-1000000	-1000000	-1000000
478,80	-11,63	6,981	0,7349	-1000000	-1000000	-1000000
480,00	-11,70	7,001	0,7348	-1000000	-1000000	-1000000
481,20	-11,77	7,021	0,7349	-1000000	-1000000	-1000000
482,40	-11,84	7,041	0,7349	-1000000	-1000000	-1000000
483,60	-11,91	7,061	0,7350	-1000000	-1000000	-1000000
484,80	-11,99	7,081	0,7350	-1000000	-1000000	-1000000
486,00	-12,06	7,100	0,7350	-1000000	-1000000	-1000000
487,20	-12,13	7,121	0,7351	-1000000	-1000000	-1000000
488,40	-12,20	7,141	0,7350	-1000000	-1000000	-1000000
489,60	-12,27	7,161	0,7350	-1000000	-1000000	-1000000
490,80	-12,34	7,181	0,7350	-1000000	-1000000	-1000000
492,00	-12,40	7,200	0,7349	-1000000	-1000000	-1000000
493,20	-12,47	7,221	0,7352	-1000000	-1000000	-1000000
494,40	-12,54	7,241	0,7351	-1000000	-1000000	-1000000
495,60	-12,61	7,261	0,7352	-1000000	-1000000	-1000000
496,80	-12,68	7,281	0,7351	-1000000	-1000000	-1000000
498,00	-12,75	7,300	0,7352	-1000000	-1000000	-1000000
499,20	-12,81	7,320	0,7352	-1000000	-1000000	-1000000
500,40	-12,88	7,340	0,7352	-1000000	-1000000	-1000000
501,60	-12,95	7,360	0,7352	-1000000	-1000000	-1000000
502,80	-13,01	7,379	0,7352	-1000000	-1000000	-1000000
504,00	-13,08	7,400	0,7352	-1000000	-1000000	-1000000
505,20	-13,14	7,420	0,7352	-1000000	-1000000	-1000000
506,40	-13,21	7,441	0,7352	-1000000	-1000000	-1000000
507,60	-13,28	7,461	0,7352	-1000000	-1000000	-1000000
508,80	-13,35	7,480	0,7354	-1000000	-1000000	-1000000
510,00	-13,41	7,500	0,7353	-1000000	-1000000	-1000000
511,20	-13,48	7,519	0,7355	-1000000	-1000000	-1000000
512,40	-13,54	7,540	0,7354	-1000000	-1000000	-1000000
513,60	-13,61	7,559	0,7354	-1000000	-1000000	-1000000
514,80	-13,68	7,580	0,7353	-1000000	-1000000	-1000000
516,00	-13,75	7,600	0,7354	-1000000	-1000000	-1000000
517,20	-13,81	7,620	0,7355	-1000000	-1000000	-1000000
518,40	-13,88	7,640	0,7355	-1000000	-1000000	-1000000
519,60	-13,94	7,661	0,7354	-1000000	-1000000	-1000000
520,80	-14,01	7,680	0,7354	-1000000	-1000000	-1000000
522,00	-14,07	7,700	0,7356	-1000000	-1000000	-1000000
523,20	-14,14	7,720	0,7355	-1000000	-1000000	-1000000
524,40	-14,20	7,739	0,7355	-1000000	-1000000	-1000000
525,60	-14,25	7,760	0,7355	-1000000	-1000000	-1000000
526,80	-14,30	7,779	0,7355	-1000000	-1000000	-1000000
528,00	-14,36	7,799	0,7355	-1000000	-1000000	-1000000
529,20	-14,41	7,820	0,7356	-1000000	-1000000	-1000000
530,40	-14,46	7,839	0,7356	-1000000	-1000000	-1000000
531,60	-14,51	7,859	0,7356	-1000000	-1000000	-1000000
532,80	-14,57	7,880	0,7355	-1000000	-1000000	-1000000
534,00	-14,62	7,900	0,7355	-1000000	-1000000	-1000000
535,20	-14,67	7,919	0,7356	-1000000	-1000000	-1000000
536,40	-14,72	7,939	0,7356	-1000000	-1000000	-1000000
537,60	-14,77	7,959	0,7356	-1000000	-1000000	-1000000
538,80	-14,82	7,979	0,7357	-1000000	-1000000	-1000000
540,00	-14,86	7,999	0,7356	-1000000	-1000000	-1000000
541,20	-14,91	8,020	0,7357	-1000000	-1000000	-1000000
542,40	-14,96	8,039	0,7356	-1000000	-1000000	-1000000
543,60	-15,01	8,060	0,7357	-1000000	-1000000	-1000000
544,80	-15,06	8,079	0,7356	-1000000	-1000000	-1000000
546,00	-15,10	8,099	0,7358	-1000000	-1000000	-1000000
547,20	-3,154	8,120	0,7346	-1000000	-1000000	-1000000
548,40	-3,217	8,138	0,7347	-1000000	-1000000	-1000000
549,60	-3,283	8,158	0,7347	-1000000	-1000000	-1000000
550,80	-3,345	8,179	0,7348	-1000000	-1000000	-1000000
552,00	-3,405	8,198	0,7348	-1000000	-1000000	-1000000
553,20	-3,463	8,218	0,7347	-1000000	-1000000	-1000000
554,40	-3,520	8,237	0,7347	-1000000	-1000000	-1000000
555,60	-3,576	8,258	0,7347	-1000000	-1000000	-1000000
556,80	-3,632	8,278	0,7349	-1000000	-1000000	-1000000
558,00	-3,686	8,298	0,7348	-1000000	-1000000	-1000000
559,20	-3,739	8,318	0,7348	-1000000	-1000000	-1000000
560,40	-3,791	8,338	0,7349	-1000000	-1000000	-1000000
561,60	-3,843	8,358	0,7348	-1000000	-1000000	-1000000
562,80	-3,895	8,379	0,7348	-1000000	-1000000	-1000000
564,00	-3,947	8,399	0,7349	-1000000	-1000000	-1000000
565,20	-3,999	8,419	0,7349	-1000000	-1000000	-1000000
566,40	-4,050	8,438	0,7349	-1000000	-1000000	-1000000
567,60	-4,100	8,458	0,7349	-1000000	-1000000	-1000000
568,80	-4,152	8,478	0,7350	-1000000	-1000000	-1000000
570,00	-4,203	8,498	0,7348	-1000000	-1000000	-1000000
571,20	-4,253	8,519	0,7350	-1000000	-1000000	-1000000
572,40	-4,305	8,539	0,7350	-1000000	-1000000	-1000000
573,60	-4,357	8,559	0,7351	-1000000	-1000000	-1000000
574,80	-4,408	8,579	0,7350	-1000000	-1000000	-1000000
576,00	-4,459	8,599	0,7350	-1000000	-1000000	-1000000
577,20	-4,509	8,619	0,7350	-1000000	-1000000	-1000000
578,40	-4,564	8,639	0,7350	-1000000	-1000000	-1000000
579,60	-4,615	8,658	0,7350	-1000000	-1000000	-1000000
580,80	-4,667	8,678	0,7350	-1000000	-1000000	-1000000
582,00	-4,718	8,698	0,7351	-1000000	-1000000	-1000000
583,20	-4,768	8,719	0,7351	-1000000	-1000000	-1000000
584,40	-4,819	8,738	0,7350	-1000000	-1000000	-1000000
585,60	-4,871	8,758	0,7350	-1000000	-1000000	-1000000
586,80	-4,922	8,779	0,7351	-1000000	-1000000	-1000000
588,00	-4,974	8,798	0,7351	-1000000	-1000000	-1000000
589,20	-5,025	8,819	0,7351	-1000000	-1000000	-1000000
590,40	-5,076	8,838	0,7351	-1000000	-1000000	-1000000
591,60	-5,128	8,859	0,7351	-1000000	-1000000	-1000000
592,80	-5,180	8,878	0,7352	-1000000	-1000000	-1000000
594,00	-5,233	8,898	0,7352	-1000000	-1000000	-1000000
595,20	-5,282	8,918	0,7352	-1000000	-1000000	-1000000
596,40	-5,336	8,939	0,7352	-1000000	-1000000	-1000000
597,60	-5,390	8,959	0,7352	-1000000	-1000000	-1000000
598,80	-5,446	8,978	0,7352	-1000000	-1000000	-1000000
600,00	-5,501	8,998	0,7352	-1000000	-1000000	-1000000
601,20	-5,554	9,018	0,7353	-1000000	-1000000	-1000000
602,40	-5,607	9,039	0,7353	-1000000	-1000000	-1000000
603,60	-5,658	9,059	0,7352	-1000000	-1000000	-1000000
604,80	-5,707	9,079	0,7353	-1000000	-1000000	-1000000
606,00	-5,735	9,099	0,7353	-1000000	-1000000	-1000000
607,20	-5,787	9,118	0,7353	-1000000	-1000000	-1000000
608,40	-5,838	9,138	0,7353	-1000000	-1000000	-1000000
609,60	-5,887	9,159	0,7353	-1000000	-1000000	-1000000
610,80	-5,936	9,178	0,7353	-1000000	-1000000	-1000000
612,00	-5,985	9,198	0,7353	-1000000	-1000000	-1000000
613,20	-6,033	9,219	0,7353	-1000000	-1000000	-1000000
614,40	-6,082	9,239	0,7354	-1000000	-1000000	-1000000
615,60	-6,131	9,258	0,7353	-1000000	-1000000	-1000000
616,80	-6,180	9,279	0,7354	-1000000	-1000000	-1000000
618,00	-6,228	9,299	0,7354	-1000000	-1000000	-1000000
619,20	-6,277	9,319	0,7354	-1000000	-1000000	-1000000
620,40	-6,326	9,338	0,7354	-1000000	-1000000	-1000000
621,60	-6,375	9,359	0,7354	-1000000	-1000000	-1000000
622,80	-6,425	9,378	0,7354	-1000000	-1000000	-1000000
624,00	-6,474	9,398	0,7354	-1000000	-1000000	-1000000
625,20	-6,522	9,419	0,7355	-1000000	-1000000	-1000000
626,40	-6,571	9,438	0,7355	-1000000	-1000000	-1000000
627,60	-6,621	9,458	0,7354	-1000000	-1000000	-1000000
628,80	-6,671	9,478	0,7355	-1000000	-1000000	-1000000
630,00	-6,720	9,498	0,7355	-1000000	-1000000	-1000000
631,20	-6,770	9,518	0,7355	-1000000	-1000000	-1000000
632,40	-6,821	9,539	0,7355	-1000000	-1000000	-1000000
633,60	-6,871	9,559	0,7355	-1000000	-1000000	-1000000
634,80	-6,920	9,578	0,7356	-1000000	-1000000	-1000000
636,00	-6,970	9,598	0,7356	-1000000	-1000000	-1000000
637,20	-7,019	9,618	0,7355	-1000000	-1000000	-1000000
638,40	-7,070	9,638	0,7355	-1000000	-1000000	-1000000
639,60	-7,120	9,657	0,7356	-1000000	-1000000	-1000000
640,80	-7,170	9,677	0,7357	-1000000	-1000000	-1000000
642,00	-7,220	9,698	0,7356	-1000000	-1000000	-1000000
643,20	-7,270	9,718	0,7356	-1000000	-1000000	-1000000
644,40	-7,320	9,738	0,7356	-1000000	-1000000	-1000000
645,60	-7,371	9,759	0,7356	-1000000	-1000000	-1000000
646,80	-7,421	9,779	0,7356	-1000000	-1000000	-1000000
648,00	-7,472	9,798	0,7357	-1000000	-1000000	-1000000
649,20	-7,521	9,819	0,7356	-1000000	-1000000	-1000000
650,40	-7,572	9,838	0,7357	-1000000	-1000000	-1000000
651,60	-7,623	9,858	0,7357	-1000000	-1000000	-1000000
652,80	-7,674	9,878	0,7357	-1000000	-1000000	-1000000
654,00	-7,725	9,898	0,7357	-1000000	-1000000	-1000000
655,20	-7,774	9,918	0,7357	-1000000	-1000000	-1000000
656,40	-7,824	9,938	0,7357	-1000000	-1000000	-1000000
657,60	-7,877	9,959	0,7356	-1000000	-1000000	-1000000
658,80	-7,928	9,979	0,7357	-1000000	-1000000	-1000000
660,00	-7,979	9,999	0,7357	-1000000	-1000000	-1000000
661,20	-8,030	10,02	0,7357	-1000000	-1000000	-1000000
662,40	-8,081	10,04	0,7358	-1000000	-1000000	-1000000
663,60	-8,133	10,06	0,7357	-1000000	-1000000	-1000000
664,80	-8,185	10,08	0,7358	-1000000	-1000000	-1000000
666,00	-8,236	10,10	0,7357	-1000000	-1000000	-1000000
667,20	-8,286	10,12	0,7358	-1000000	-1000000	-1000000
668,40	-8,338	10,14	0,7358	-1000000	-1000000	-1000000
669,60	-8,389	10,16	0,7358	-1000000	-1000000	-1000000
670,80	-8,441	10,18	0,7358	-1000000	-1000000	-1000000
672,00	-8,493	10,20	0,7358	-1000000	-1000000	-1000000
673,20	-8,543	10,22	0,7357	-1000000	-1000000	-1000000
674,40	-8,595	10,24	0,7358	-1000000	-1000000	-1000000
675,60	-8,647	10,26	0,7358	-1000000	-1000000	-1000000
676,80	-8,698	10,28	0,7358	-1000000	-1000000	-1000000
678,00	-8,750	10,30	0,7359	-1000000	-1000000	-1000000
679,20	-8,800	10,32	0,7358	-1000000	-1000000	-1000000
680,40	-8,852	10,34	0,7359	-1000000	-1000000	-1000000
681,60	-8,905	10,36	0,7358	-1000000	-1000000	-1000000
682,80	-8,956	10,38	0,7358	-1000000	-1000000	-1000000
684,00	-9,008	10,40	0,7358	-1000000	-1000000	-1000000
685,20	-9,063	10,42	0,7357	-1000000	-1000000	-1000000
686,40	-9,116	10,44	0,7358	-1000000	-1000000	-1000000
687,60	-9,166	10,46	0,7359	-1000000	-1000000	-1000000
688,80	-9,219	10,48	0,7358	-1000000	-1000000	-1000000
690,00	-9,270	10,50	0,7359	-1000000	-1000000	-1000000
691,20	-9,322	10,52	0,7360	-1000000	-1000000	-1000000
692,40	-9,374	10,54	0,7358	-1000000	-1000000	-1000000
693,60	-9,425	10,56	0,7359	-1000000	-1000000	-1000000
694,80	-9,478	10,58	0,7360	-1000000	-1000000	-1000000
696,00	-9,529	10,60	0,7360	-1000000	-1000000	-1000000
697,20	-9,579	10,62	0,7359	-1000000	-1000000	-1000000
698,40	-9,631	10,64	0,7358	-1000000	-1000000	-1000000
699,60	-9,682	10,66	0,7360	-1000000	-1000000	-1000000
700,80	-9,734	10,68	0,7359	-1000000	-1000000	-1000000
702,00	-9,786	10,70	0,7359	-1000000	-1000000	-1000000
703,20	-9,836	10,72	0,7360	-1000000	-1000000	-1000000
704,40	-9,888	10,74	0,7360	-1000000	-1000000	-1000000
705,60	-9,940	10,76	0,7359	-1000000	-1000000	-1000000
706,80	-9,991	10,78	0,7360	-1000000	-1000000	-1000000
708,00	-10,04	10,80	0,7360	-1000000	-1000000	-1000000
709,20	-10,09	10,82	0,7360	-1000000	-1000000	-1000000
710,40	-10,14	10,84	0,7360	-1000000	-1000000	-1000000
711,60	-10,20	10,86	0,7361	-1000000	-1000000	-1000000
712,80	-10,25	10,88	0,7360	-1000000	-1000000	-1000000
714,00	-10,30	10,90	0,7360	-1000000	-1000000	-1000000
715,20	-10,35	10,92	0,7360	-1000000	-1000000	-1000000
716,40	-10,40	10,94	0,7361	-1000000	-1000000	-1000000
717,60	-10,45	10,96	0,7361	-1000000	-1000000	-1000000
718,80	-10,50	10,98	0,7360	-1000000	-1000000	-1000000
720,00	-10,55	11,00	0,7360	-1000000	-1000000	-1000000
721,20	-10,60	11,02	0,7361	-1000000	-1000000	-1000000
722,40	-10,65	11,04	0,7360	-1000000	-1000000	-1000000
723,60	-10,70	11,06	0,7360	-1000000	-1000000	-1000000
724,80	-10,75	11,08	0,7360	-1000000	-1000000	-1000000
726,00	-10,80	11,10	0,7360	-1000000	-1000000	-1000000
727,20	-10,85	11,12	0,7361	-1000000	-1000000	-1000000
728,40	-10,90	11,14	0,7361	-1000000	-1000000	-1000000
729,60	-10,95	11,16	0,7362	-1000000	-1000000	-1000000
730,80	-11,00	11,18	0,7362	-1000000	-1000000	-1000000
732,00	-11,05	11,20	0,7362	-1000000	-1000000	-1000000
733,20	-11,10	11,22	0,7362	-1000000	-1000000	-1000000
734,40	-11,15	11,24	0,7362	-1000000	-1000000	-1000000
735,60	-11,20	11,26	0,7362	-1000000	-1000000	-1000000
736,80	-11,25	11,28	0,7363	-1000000	-1000000	-1000000
738,00	-11,30	11,30	0,7363	-1000000	-1000000	-1000000
739,20	-11,35	11,32	0,7361	-1000000	-1000000	-1000000
740,40	-11,40	11,34	0,7362	-1000000	-1000000	-1000000
741,60	-11,45	11,36	0,7362	-1000000	-1000000	-1000000
742,80	-11,49	11,38	0,7362	-1000000	-1000000	-1000000
744,00	-11,54	11,40	0,7362	-1000000	-1000000	-1000000
745,20	-11,59	11,42	0,7362	-1000000	-1000000	-1000000
746,40	-11,64	11,44	0,7361	-1000000	-1000000	-1000000
747,60	-11,69	11,46	0,7362	-1000000	-1000000	-1000000
748,80	-4,883	11,48	0,7358	-1000000	-1000000	-1000000
750,00	-3,128	11,50	0,7360	-1000000	-1000000	-1000000
751,20	-3,192	11,52	0,7359	-1000000	-1000000	-1000000
752,40	-3,253	11,54	0,7359	-1000000	-1000000	-1000000
753,60	-3,313	11,56	0,7359	-1000000	-1000000	-1000000
754,80	-3,371	11,58	0,7360	-1000000	-1000000	-1000000
756,00	-3,426	11,60	0,7359	-1000000	-1000000	-1000000
757,20	-3,482	11,62	0,7360	-1000000	-1000000	-1000000
758,40	-3,535	11,64	0,7360	-1000000	-1000000	-1000000
759,60	-3,589	11,66	0,7360	-1000000	-1000000	-1000000
760,80	-3,641	11,68	0,7359	-1000000	-1000000	-1000000
762,00	-3,693	11,70	0,7360	-1000000	-1000000	-1000000
763,20	-3,745	11,72	0,7360	-1000000	-1000000	-1000000
764,40	-3,796	11,74	0,7361	-1000000	-1000000	-1000000
765,60	-3,848	11,76	0,7360	-1000000	-1000000	-1000000
766,80	-3,898	11,78	0,7360	-1000000	-1000000	-1000000
768,00	-3,949	11,80	0,7361	-1000000	-1000000	-1000000
769,20	-3,999	11,82	0,7360	-1000000	-1000000	-1000000
770,40	-4,050	11,84	0,7360	-1000000	-1000000	-1000000
771,60	-4,100	11,86	0,7361	-1000000	-1000000	-1000000
772,80	-4,150	11,88	0,7361	-1000000	-1000000	-1000000
774,00	-4,201	11,90	0,7360	-1000000	-1000000	-1000000
775,20	-4,252	11,92	0,7361	-1000000	-1000000	-1000000
776,40	-4,303	11,94	0,7360	-1000000	-1000000	-1000000
777,60	-4,353	11,96	0,7359	-1000000	-1000000	-1000000
778,80	-4,404	11,98	0,7361	-1000000	-1000000	-1000000
780,00	-4,454	12,00	0,7361	-1000000	-1000000	-1000000
781,20	-4,504	12,02	0,7361	-1000000	-1000000	-1000000
782,40	-4,559	12,04	0,7361	-1000000	-1000000	-1000000
783,60	-4,610	12,06	0,7362	-1000000	-1000000	-1000000
784,80	-4,660	12,08	0,7361	-1000000	-1000000	-1000000
786,00	-4,710	12,10	0,7361	-1000000	-1000000	-1000000
787,20	-4,760	12,12	0,7363	-1000000	-1000000	-1000000
788,40	-4,811	12,14	0,7362	-1000000	-1000000	-1000000
789,60	-4,861	12,16	0,7362	-1000000	-1000000	-1000000
790,80	-4,912	12,18	0,7362	-1000000	-1000000	-1000000
792,00	-4,963	12,20	0,7362	-1000000	-1000000	-1000000
793,20	-5,013	12,22	0,7361	-1000000	-1000000	-1000000
794,40	-5,065	12,24	0,7361	-1000000	-1000000	-1000000
795,60	-5,110	12,26	0,7362	-1000000	-1000000	-1000000
796,80	-5,162	12,28	0,7362	-1000000	-1000000	-1000000
798,00	-5,214	12,30	0,7361	-1000000	-1000000	-1000000
799,20	-5,267	12,32	0,7362	-1000000	-1000000	-1000000
800,40	-5,321	12,34	0,7361	-1000000	-1000000	-1000000
801,60	-5,374	12,36	0,7362	-1000000	-1000000	-1000000
802,80	-5,428	12,38	0,7362	-1000000	-1000000	-1000000
804,00	-5,482	12,40	0,7362	-1000000	-1000000	-1000000
805,20	-5,533	12,42	0,7363	-1000000	-1000000	-1000000
806,40	-5,585	12,44	0,7362	-1000000	-1000000	-1000000
807,60	-5,635	12,46	0,7362	-1000000	-1000000	-1000000
808,80	-5,679	12,48	0,7362	-1000000	-1000000	-1000000
810,00	-5,721	12,50	0,7362	-1000000	-1000000	-1000000
811,20	-5,772	12,52	0,7363	-1000000	-1000000	-1000000
812,40	-5,823	12,54	0,7363	-1000000	-1000000	-1000000
813,60	-5,874	12,56	0,7362	-1000000	-1000000	-1000000
814,80	-5,924	12,58	0,7363	-1000000	-1000000	-1000000
816,00	-5,970	12,60	0,7363	-1000000	-1000000	-1000000
817,20	-6,020	12,62	0,7363	-1000000	-1000000	-1000000
818,40	-6,071	12,64	0,7363	-1000000	-1000000	-1000000
819,60	-6,122	12,66	0,7362	-1000000	-1000000	-1000000
820,80	-6,170	12,68	0,7363	-1000000	-1000000	-1000000
822,00	-6,220	12,70	0,7363	-1000000	-1000000	-1000000
823,20	-6,270	12,72	0,7363	-1000000	-1000000	-1000000
824,40	-6,321	12,74	0,7363	-1000000	-1000000	-1000000
825,60	-6,371	12,76	0,7363	-1000000	-1000000	-1000000
826,80	-6,421	12,78	0,7363	-1000000	-1000000	-1000000
828,00	-6,470	12,80	0,7363	-1000000	-1000000	-1000000
829,20	-6,520	12,82	0,7363	-1000000	-1000000	-1000000
830,40	-6,570	12,84	0,7363	-1000000	-1000000	-1000000
831,60	-6,620	12,86	0,7364	-1000000	-1000000	-1000000
832,80	-6,671	12,88	0,7364	-1000000	-1000000	-1000000
834,00	-6,721	12,90	0,7364	-1000000	-1000000	-1000000
835,20	-6,770	12,92	0,7364	-1000000	-1000000	-1000000
836,40	-6,821	12,94	0,7364	-1000000	-1000000	-1000000
837,60	-6,872	12,96	0,7365	-1000000	-1000000	-1000000
838,80	-6,922	12,98	0,7364	-1000000	-1000000	-1000000
840,00	-6,971	13,00	0,7364	-1000000	-1000000	-1000000
841,20	-7,022	13,02	0,7364	-1000000	-1000000	-1000000
842,40	-7,072	13,04	0,7365	-1000000	-1000000	-1000000
843,60	-7,122	13,06	0,7365	-1000000	-1000000	-1000000
844,80	-7,173	13,08	0,7364	-1000000	-1000000	-1000000
846,00	-7,223	13,10	0,7365	-1000000	-1000000	-1000000
847,20	-7,273	13,12	0,7365	-1000000	-1000000	-1000000
848,40	-7,325	13,14	0,7364	-1000000	-1000000	-1000000
849,60	-7,376	13,16	0,7365	-1000000	-1000000	-1000000
850,80	-7,426	13,18	0,7364	-1000000	-1000000	-1000000
852,00	-7,476	13,20	0,7364	-1000000	-1000000	-1000000
853,20	-7,528	13,22	0,7365	-1000000	-1000000	-1000000
854,40	-7,578	13,24	0,7365	-1000000	-1000000	-1000000
855,60	-7,628	13,26	0,7365	-1000000	-1000000	-1000000
856,80	-7,679	13,28	0,7366	-1000000	-1000000	-1000000
858,00	-7,731	13,30	0,7365	-1000000	-1000000	-1000000
859,20	-7,781	13,32	0,7366	-1000000	-1000000	-1000000
860,40	-7,830	13,34	0,7365	-1000000	-1000000	-1000000
861,60	-7,882	13,36	0,7365	-1000000	-1000000	-1000000
862,80	-7,934	13,38	0,7365	-1000000	-1000000	-1000000
864,00	-7,985	13,40	0,7365	-1000000	-1000000	-1000000
865,20	-8,037	13,42	0,7365	-1000000	-1000000	-1000000
866,40	-8,089	13,44	0,7365	-1000000	-1000000	-1000000
867,60	-8,140	13,46	0,7366	-1000000	-1000000	-1000000
868,80	-8,192	13,48	0,7366	-1000000	-1000000	-1000000
870,00	-8,242	13,50	0,7365	-1000000	-1000000	-1000000
871,20	-8,294	13,52	0,7366	-1000000	-1000000	-1000000
872,40	-8,347	13,54	0,7366	-1000000	-1000000	-1000000
873,60	-8,397	13,56	0,7367	-1000000	-1000000	-1000000
874,80	-8,450	13,58	0,7367	-1000000	-1000000	-1000000
876,00	-8,501	13,60	0,7367	-1000000	-1000000	-1000000
877,20	-8,552	13,62	0,7365	-1000000	-1000000	-1000000
878,40	-8,604	13,64	0,7366	-1000000	-1000000	-1000000
879,60	-8,656	13,66	0,7367	-1000000	-1000000	-1000000
880,80	-8,707	13,68	0,7366	-1000000	-1000000	-1000000
882,00	-8,759	13,70	0,7366	-1000000	-1000000	-1000000
883,20	-8,811	13,72	0,7366	-1000000	-1000000	-1000000
884,40	-8,862	13,74	0,7366	-1000000	-1000000	-1000000
885,60	-8,914	13,76	0,7366	-1000000	-1000000	-1000000
886,80	-8,966	13,78	0,7366	-1000000	-1000000	-1000000
888,00	-9,017	13,80	0,7366	-1000000	-1000000	-1000000
889,20	-9,074	13,82	0,7366	-1000000	-1000000	-1000000
890,40	-9,124	13,84	0,7367	-1000000	-1000000	-1000000
891,60	-9,176	13,86	0,7366	-1000000	-1000000	-1000000
892,80	-9,227	13,88	0,7367	-1000000	-1000000	-1000000
894,00	-9,279	13,90	0,7369	-1000000	-1000000	-1000000
895,20	-9,330	13,92	0,7367	-1000000	-1000000	-1000000
896,40	-9,382	13,94	0,7367	-1000000	-1000000	-1000000
897,60	-9,434	13,96	0,7368	-1000000	-1000000	-1000000
898,80	-9,485	13,98	0,7367	-1000000	-1000000	-1000000
900,00	-9,535	14,00	0,7367	-1000000	-1000000	-1000000
901,20	-9,586	14,02	0,7368	-1000000	-1000000	-1000000
902,40	-9,638	14,04	0,7367	-1000000	-1000000	-1000000
903,60	-9,690	14,06	0,7367	-1000000	-1000000	-1000000
904,80	-9,740	14,08	0,7367	-1000000	-1000000	-1000000
906,00	-9,790	14,10	0,7367	-1000000	-1000000	-1000000
907,20	-9,842	14,12	0,7367	-1000000	-1000000	-1000000
908,40	-9,893	14,14	0,7368	-1000000	-1000000	-1000000
909,60	-9,944	14,16	0,7368	-1000000	-1000000	-1000000
910,80	-9,995	14,18	0,7367	-1000000	-1000000	-1000000
912,00	-10,04	14,20	0,7367	-1000000	-1000000	-1000000
913,20	-10,09	14,22	0,7368	-1000000	-1000000	-1000000
914,40	-10,14	14,24	0,7368	-1000000	-1000000	-1000000
915,60	-10,19	14,26	0,7368	-1000000	-1000000	-1000000
916,80	-10,24	14,28	0,7369	-1000000	-1000000	-1000000
918,00	-10,29	14,30	0,7368	-1000000	-1000000	-1000000
919,20	-10,34	14,32	0,7368	-1000000	-1000000	-1000000
920,40	-10,39	14,34	0,7369	-1000000	-1000000	-1000000
921,60	-10,44	14,36	0,7368	-1000000	-1000000	-1000000
922,80	-10,48	14,38	0,7368	-1000000	-1000000	-1000000
924,00	-10,53	14,40	0,7368	-1000000	-1000000	-1000000
925,20	-10,58	14,42	0,7368	-1000000	-1000000	-1000000
926,40	-10,63	14,44	0,7369	-1000000	-1000000	-1000000
927,60	-10,67	14,46	0,7369	-1000000	-1000000	-1000000
928,80	-10,72	14,48	0,7369	-1000000	-1000000	-1000000
930,00	-10,77	14,50	0,7369	-1000000	-1000000	-1000000
931,20	-10,81	14,52	0,7368	-1000000	-1000000	-1000000
932,40	-10,86	14,54	0,7368	-1000000	-1000000	-1000000
933,60	-10,91	14,56	0,7369	-1000000	-1000000	-1000000
934,80	-10,95	14,58	0,7369	-1000000	-1000000	-1000000
936,00	-11,00	14,60	0,7368	-1000000	-1000000	-1000000
937,20	-11,05	14,62	0,7370	-1000000	-1000000	-1000000
938,40	-11,09	14,64	0,7369	-1000000	-1000000	-1000000
939,60	-11,14	14,66	0,7369	-1000000	-1000000	-1000000
940,80	-11,19	14,68	0,7369	-1000000	-1000000	-1000000
942,00	-11,23	14,70	0,7369	-1000000	-1000000	-1000000
943,20	-11,28	14,72	0,7370	-1000000	-1000000	-1000000
944,40	-11,33	14,74	0,7370	-1000000	-1000000	-1000000
945,60	-11,38	14,76	0,7370	-1000000	-1000000	-1000000
946,80	-11,42	14,78	0,7370	-1000000	-1000000	-1000000
948,00	-11,47	14,80	0,7371	-1000000	-1000000	-1000000
949,20	-11,52	14,82	0,7370	-1000000	-1000000	-1000000
950,40	-11,56	14,84	0,7370	-1000000	-1000000	-1000000
951,60	-11,61	14,86	0,7370	-1000000	-1000000	-1000000
952,80	-11,66	14,88	0,7370	-1000000	-1000000	-1000000
954,00	-11,70	14,90	0,7370	-1000000	-1000000	-1000000
955,20	-11,75	14,92	0,7371	-1000000	-1000000	-1000000
956,40	-11,80	14,94	0,7371	-1000000	-1000000	-1000000
957,60	-11,84	14,96	0,7371	-1000000	-1000000	-1000000
958,80	-11,89	14,98	0,7371	-1000000	-1000000	-1000000
960,00	-11,93	15,00	0,7371	-1000000	-1000000	-1000000
961,20	-11,98	15,02	0,7372	-1000000	-1000000	-1000000
962,40	-12,02	15,04	0,7371	-1000000	-1000000	-1000000
963,60	-12,07	15,06	0,7371	-1000000	-1000000	-1000000
964,80	-12,12	15,08	0,7372	-1000000	-1000000	-1000000
966,00	-12,16	15,10	0,7370	-1000000	-1000000	-1000000
967,20	-12,21	15,12	0,7370	-1000000	-1000000	-1000000
968,40	-12,26	15,14	0,7371	-1000000	-1000000	-1000000
969,60	-12,30	15,16	0,7371	-1000000	-1000000	-1000000
970,80	-12,35	15,18	0,7371	-1000000	-1000000	-1000000
972,00	-12,39	15,20	0,7370	-1000000	-1000000	-1000000
973,20	-12,44	15,22	0,7370	-1000000	-1000000	-1000000
974,40	-12,49	15,24	0,7371	-1000000	-1000000	-1000000
975,60	-12,53	15,26	0,7371	-1000000	-1000000	-1000000
976,80	-12,58	15,28	0,7371	-1000000	-1000000	-1000000
978,00	-12,63	15,30	0,7372	-1000000	-1000000	-1000000
979,20	-12,67	15,32	0,7370	-1000000	-1000000	-1000000
980,40	-12,72	15,34	0,7373	-1000000	-1000000	-1000000
981,60	-12,77	15,36	0,7372	-1000000	-1000000	-1000000
982,80	-12,81	15,38	0,7373	-1000000	-1000000	-1000000
984,00	-12,86	15,40	0,7372	-1000000	-1000000	-1000000
985,20	-12,91	15,42	0,7371	-1000000	-1000000	-1000000
986,40	-12,95	15,44	0,7372	-1000000	-1000000	-1000000
987,60	-13,00	15,45	0,7371	-1000000	-1000000	-1000000
988,80	-13,05	15,47	0,7372	-1000000	-1000000	-1000000
990,00	-13,09	15,50	0,7372	-1000000	-1000000	-1000000
991,20	-13,14	15,52	0,7371	-1000000	-1000000	-1000000
992,40	-13,19	15,54	0,7371	-1000000	-1000000	-1000000
993,60	-13,24	15,56	0,7372	-1000000	-1000000	-1000000
994,80	-13,28	15,58	0,7372	-1000000	-1000000	-1000000
996,00	-13,33	15,60	0,7372	-1000000	-1000000	-1000000
997,20	-13,38	15,62	0,7372	-1000000	-1000000	-1000000
998,40	-13,42	15,64	0,7372	-1000000	-1000000	-1000000
999,60	-13,47	15,66	0,7372	-1000000	-1000000	-1000000
1000,8	-13,52	15,67	0,7372	-1000000	-1000000	-1000000
1002,0	-13,56	15,70	0,7372	-1000000	-1000000	-1000000
1003,2	-13,61	15,72	0,7372	-1000000	-1000000	-1000000
1004,4	-13,66	15,74	0,7372	-1000000	-1000000	-1000000
1005,6	-12,15	15,76	0,7372	-1000000	-1000000	-1000000
1006,8	-12,21	15,78	0,7373	-1000000	-1000000	-1000000
1008,0	-12,28	15,80	0,7373	-1000000	-1000000	-1000000
1009,2	-12,34	15,82	0,7372	-1000000	-1000000	-1000000
1010,4	-12,41	15,84	0,7372	-1000000	-1000000	-1000000
1011,6	-12,47	15,86	0,7372	-1000000	-1000000	-1000000
1012,8	-12,54	15,87	0,7372	-1000000	-1000000	-1000000
1014,0	-12,60	15,90	0,7372	-1000000	-1000000	-1000000
1015,2	-12,66	15,92	0,7372	-1000000	-1000000	-1000000
1016,4	-12,73	15,93	0,7374	-1000000	-1000000	-1000000
1017,6	-12,79	15,96	0,7373	-1000000	-1000000	-1000000
1018,8	-12,85	15,98	0,7373	-1000000	-1000000	-1000000
1020,0	-12,91	16,00	0,7371	-1000000	-1000000	-1000000
1021,2	-12,97	16,02	0,7372	-1000000	-1000000	-1000000
1022,4	-13,03	16,04	0,7372	-1000000	-1000000	-1000000
1023,6	-12,42	16,06	0,7373	-1000000	-1000000	-1000000
1024,8	-12,48	16,08	0,7373	-1000000	-1000000	-1000000
1026,0	-12,54	16,10	0,7372	-1000000	-1000000	-1000000
1027,2	-12,60	16,12	0,7373	-1000000	-1000000	-1000000
1028,4	-12,64	16,14	0,7373	-1000000	-1000000	-1000000
1029,6	-12,69	16,16	0,7373	-1000000	-1000000	-1000000
1030,8	-12,74	16,18	0,7372	-1000000	-1000000	-1000000
1032,0	-8,999	16,20	0,7373	-1000000	-1000000	-1000000
1033,2	-9,045	16,22	0,7372	-1000000	-1000000	-1000000
1034,4	-9,105	16,24	0,7373	-1000000	-1000000	-1000000
1035,6	-9,159	16,26	0,7373	-1000000	-1000000	-1000000
1036,8	-9,211	16,28	0,7373	-1000000	-1000000	-1000000
1038,0	-9,262	16,30	0,7373	-1000000	-1000000	-1000000
1039,2	-9,314	16,32	0,7372	-1000000	-1000000	-1000000
1040,4	-9,366	16,34	0,7373	-1000000	-1000000	-1000000
1041,6	-9,417	16,36	0,7373	-1000000	-1000000	-1000000
1042,8	-9,467	16,38	0,7375	-1000000	-1000000	-1000000
1044,0	-9,517	16,40	0,7373	-1000000	-1000000	-1000000
1045,2	-9,566	16,42	0,7373	-1000000	-1000000	-1000000
1046,4	-9,616	16,44	0,7373	-1000000	-1000000	-1000000
1047,6	-9,667	16,46	0,7373	-1000000	-1000000	-1000000
1048,8	-9,716	16,48	0,7373	-1000000	-1000000	-1000000
1050,0	-9,764	16,50	0,7373	-1000000	-1000000	-1000000
1051,2	-9,812	16,52	0,7373	-1000000	-1000000	-1000000
1052,4	-9,861	16,54	0,7373	-1000000	-1000000	-1000000
1053,6	-9,910	16,56	0,7372	-1000000	-1000000	-1000000
1054,8	-9,948	16,58	0,7373	-1000000	-1000000	-1000000
1056,0	-9,997	16,60	0,7374	-1000000	-1000000	-1000000
1057,2	-10,04	16,62	0,7373	-1000000	-1000000	-1000000
1058,4	-10,09	16,64	0,7373	-1000000	-1000000	-1000000
1059,6	-10,14	16,66	0,7374	-1000000	-1000000	-1000000
1060,8	-10,19	16,68	0,7373	-1000000	-1000000	-1000000
1062,0	-10,23	16,70	0,7373	-1000000	-1000000	-1000000
1063,2	-10,28	16,72	0,7376	-1000000	-1000000	-1000000
1064,4	-10,32	16,74	0,7374	-1000000	-1000000	-1000000
1065,6	-10,36	16,76	0,7374	-1000000	-1000000	-1000000
1066,8	-10,41	16,78	0,7374	-1000000	-1000000	-1000000
1068,0	-10,45	16,80	0,7375	-1000000	-1000000	-1000000
1069,2	-10,50	16,82	0,7375	-1000000	-1000000	-1000000
1070,4	-10,54	16,84	0,7374	-1000000	-1000000	-1000000
1071,6	-10,59	16,86	0,7374	-1000000	-1000000	-1000000
1072,8	-10,57	16,88	0,7373	-1000000	-1000000	-1000000
1074,0	-10,62	16,90	0,7374	-1000000	-1000000	-1000000
1075,2	-10,66	16,92	0,7375	-1000000	-1000000	-1000000
1076,4	-10,71	16,94	0,7375	-1000000	-1000000	-1000000
1077,6	-10,75	16,96	0,7374	-1000000	-1000000	-1000000
1078,8	0,00259	16,98	0,7360	-1000000	-1000000	-1000000
1080,0	-0,00076	17,00	0,7360	-1000000	-1000000	-1000000
1081,2	-0,00093	17,02	0,7359	-1000000	-1000000	-1000000
1082,4	-0,00313	17,04	0,7360	-1000000	-1000000	-1000000
1083,6	-0,00556	17,06	0,7360	-1000000	-1000000	-1000000
1084,8	-0,00527	17,08	0,7359	-1000000	-1000000	-1000000
1086,0	-0,00557	17,10	0,7359	-1000000	-1000000	-1000000
1087,2	-0,00522	17,12	0,7359	-1000000	-1000000	-1000000
1088,4	-0,00540	17,12	0,7359	-1000000	-1000000	-1000000
1089,6	-0,00551	17,12	0,7360	-1000000	-1000000	-1000000
1090,8	-0,00632	17,12	0,7360	-1000000	-1000000	-1000000
1092,0	-0,00691	17,12	0,7361	-1000000	-1000000	-1000000
1093,2	-0,00714	17,12	0,7362	-1000000	-1000000	-1000000
1094,4	-0,00888	17,12	0,7359	-1000000	-1000000	-1000000
1095,6	-0,00814	17,12	0,7360	-1000000	-1000000	-1000000
1096,8	-0,00955	17,12	0,7360	-1000000	-1000000	-1000000