File: notebooks/experimental_tests/results/carbon_tensile_tests/F3.txt
Zeit  1 - Standardmessrate [s]	Kraft [kN]	Weg [mm]	DD1 [Prom]	PMX_1 CH 3-2 [µm/m]	PMX_1 CH 3-3 [mm]	PMX_1 CH 3-4 [mm]
0	-0,02863	0,000	0,000	-1000000	-1000000	-1000000
0,6000	-0,02872	-0,00072	0,000	-1000000	-1000000	-1000000
1,200	-0,02867	-0,00011	0,000	-1000000	-1000000	-1000000
1,800	-0,02867	-0,00026	0,000	-1000000	-1000000	-1000000
2,400	-0,02855	-0,00090	0,000	-1000000	-1000000	-1000000
3,000	-0,03255	0,00871	-0,00620	-1000000	-1000000	-1000000
3,600	-0,04400	0,01890	-0,02795	-1000000	-1000000	-1000000
4,200	-0,05468	0,02866	-0,04875	-1000000	-1000000	-1000000
4,800	-0,06416	0,03920	-0,06705	-1000000	-1000000	-1000000
5,400	-0,07335	0,04847	-0,08457	-1000000	-1000000	-1000000
6,000	-0,08204	0,05910	-0,09962	-1000000	-1000000	-1000000
6,600	-0,08941	0,06821	-0,1126	-1000000	-1000000	-1000000
7,200	-0,09749	0,07944	-0,1265	-1000000	-1000000	-1000000
7,800	-0,1060	0,08870	-0,1406	-1000000	-1000000	-1000000
8,400	-0,1146	0,09870	-0,1545	-1000000	-1000000	-1000000
9,000	-0,1225	0,1088	-0,1677	-1000000	-1000000	-1000000
9,600	-0,1309	0,1185	-0,1804	-1000000	-1000000	-1000000
10,20	-0,1407	0,1294	-0,1954	-1000000	-1000000	-1000000
10,80	-0,1503	0,1390	-0,2104	-1000000	-1000000	-1000000
11,40	-0,1593	0,1500	-0,2249	-1000000	-1000000	-1000000
12,00	-0,1686	0,1594	-0,2381	-1000000	-1000000	-1000000
12,60	-0,1797	0,1699	-0,2528	-1000000	-1000000	-1000000
13,20	-0,1897	0,1791	-0,2680	-1000000	-1000000	-1000000
13,80	-0,2004	0,1897	-0,2835	-1000000	-1000000	-1000000
14,40	-0,2124	0,1992	-0,2989	-1000000	-1000000	-1000000
15,00	-0,2231	0,2099	-0,3131	-1000000	-1000000	-1000000
15,60	-0,2300	0,2195	-0,3231	-1000000	-1000000	-1000000
16,20	-0,2369	0,2295	-0,3315	-1000000	-1000000	-1000000
16,80	-0,2444	0,2400	-0,3409	-1000000	-1000000	-1000000
17,40	-0,2501	0,2494	-0,3501	-1000000	-1000000	-1000000
18,00	-0,2503	0,2598	-0,3498	-1000000	-1000000	-1000000
18,60	-0,2531	0,2697	-0,3546	-1000000	-1000000	-1000000
19,20	-0,2528	0,2801	-0,3539	-1000000	-1000000	-1000000
19,80	-0,2573	0,2894	-0,3613	-1000000	-1000000	-1000000
20,40	-0,2609	0,2996	-0,3667	-1000000	-1000000	-1000000
21,00	-0,2646	0,3091	-0,3693	-1000000	-1000000	-1000000
21,60	-0,2647	0,3190	-0,3700	-1000000	-1000000	-1000000
22,20	-0,2647	0,3292	-0,3701	-1000000	-1000000	-1000000
22,80	-0,2649	0,3389	-0,3704	-1000000	-1000000	-1000000
23,40	-0,2648	0,3491	-0,3707	-1000000	-1000000	-1000000
24,00	-0,2671	0,3591	-0,3720	-1000000	-1000000	-1000000
24,60	-0,2686	0,3698	-0,3730	-1000000	-1000000	-1000000
25,20	-0,2688	0,3790	-0,3741	-1000000	-1000000	-1000000
25,80	-0,2729	0,3898	-0,3784	-1000000	-1000000	-1000000
26,40	-0,2775	0,3993	-0,3852	-1000000	-1000000	-1000000
27,00	-0,2854	0,4094	-0,3952	-1000000	-1000000	-1000000
27,60	-0,2889	0,4191	-0,3980	-1000000	-1000000	-1000000
28,20	-0,2893	0,4294	-0,3988	-1000000	-1000000	-1000000
28,80	-0,2895	0,4393	-0,3996	-1000000	-1000000	-1000000
29,40	-0,2894	0,4496	-0,4004	-1000000	-1000000	-1000000
30,00	-0,2912	0,4596	-0,4021	-1000000	-1000000	-1000000
30,60	-0,2962	0,4695	-0,4076	-1000000	-1000000	-1000000
31,20	-0,3008	0,4796	-0,4141	-1000000	-1000000	-1000000
31,80	-0,3071	0,4893	-0,4223	-1000000	-1000000	-1000000
32,40	-0,3136	0,4992	-0,4309	-1000000	-1000000	-1000000
33,00	-0,3176	0,5094	-0,4371	-1000000	-1000000	-1000000
33,60	-0,3217	0,5194	-0,4398	-1000000	-1000000	-1000000
34,20	-0,3223	0,5288	-0,4424	-1000000	-1000000	-1000000
34,80	-0,3256	0,5395	-0,4446	-1000000	-1000000	-1000000
35,40	-0,3263	0,5489	-0,4469	-1000000	-1000000	-1000000
36,00	-0,3272	0,5595	-0,4489	-1000000	-1000000	-1000000
36,60	-0,3302	0,5690	-0,4508	-1000000	-1000000	-1000000
37,20	-0,3300	0,5791	-0,4526	-1000000	-1000000	-1000000
37,80	-0,3314	0,5889	-0,4542	-1000000	-1000000	-1000000
38,40	-0,3348	0,5990	-0,4579	-1000000	-1000000	-1000000
39,00	-0,3436	0,6091	-0,4687	-1000000	-1000000	-1000000
39,60	-0,3473	0,6188	-0,4743	-1000000	-1000000	-1000000
40,20	-0,3590	0,6296	-0,4896	-1000000	-1000000	-1000000
40,80	-0,3694	0,6391	-0,5026	-1000000	-1000000	-1000000
41,40	-0,3825	0,6493	-0,5178	-1000000	-1000000	-1000000
42,00	-0,3928	0,6586	-0,5307	-1000000	-1000000	-1000000
42,60	-0,3960	0,6692	-0,5364	-1000000	-1000000	-1000000
43,20	-0,4032	0,6787	-0,5436	-1000000	-1000000	-1000000
43,80	-0,4126	0,6884	-0,5562	-1000000	-1000000	-1000000
44,40	-0,4207	0,6987	-0,5667	-1000000	-1000000	-1000000
45,00	-0,4281	0,7084	-0,5751	-1000000	-1000000	-1000000
45,60	-0,4349	0,7189	-0,5837	-1000000	-1000000	-1000000
46,20	-0,4410	0,7283	-0,5925	-1000000	-1000000	-1000000
46,80	-0,4477	0,7388	-0,5999	-1000000	-1000000	-1000000
47,40	-0,4543	0,7483	-0,6080	-1000000	-1000000	-1000000
48,00	-0,4613	0,7589	-0,6172	-1000000	-1000000	-1000000
48,60	-0,4688	0,7689	-0,6268	-1000000	-1000000	-1000000
49,20	-0,4779	0,7794	-0,6376	-1000000	-1000000	-1000000
49,80	-0,4858	0,7888	-0,6491	-1000000	-1000000	-1000000
50,40	-0,4972	0,7986	-0,6613	-1000000	-1000000	-1000000
51,00	-0,5088	0,8085	-0,6751	-1000000	-1000000	-1000000
51,60	-0,4370	0,8187	-0,5899	-1000000	-1000000	-1000000
52,20	-0,4600	0,8286	-0,6166	-1000000	-1000000	-1000000
52,80	-0,4807	0,8378	-0,6429	-1000000	-1000000	-1000000
53,40	-0,5019	0,8488	-0,6680	-1000000	-1000000	-1000000
54,00	-0,5206	0,8581	-0,6923	-1000000	-1000000	-1000000
54,60	-0,5376	0,8691	-0,7132	-1000000	-1000000	-1000000
55,20	-0,5397	0,8782	-0,7149	-1000000	-1000000	-1000000
55,80	-0,5579	0,8887	-0,7377	-1000000	-1000000	-1000000
56,40	-0,5701	0,8983	-0,7536	-1000000	-1000000	-1000000
57,00	-0,5810	0,9089	-0,7654	-1000000	-1000000	-1000000
57,60	-0,5963	0,9184	-0,7845	-1000000	-1000000	-1000000
58,20	-0,6052	0,9286	-0,7961	-1000000	-1000000	-1000000
58,80	-0,6212	0,9388	-0,8157	-1000000	-1000000	-1000000
59,40	-0,6346	0,9484	-0,8319	-1000000	-1000000	-1000000
60,00	-0,6483	0,9592	-0,8477	-1000000	-1000000	-1000000
60,60	-0,6603	0,9685	-0,8634	-1000000	-1000000	-1000000
61,20	-0,6735	0,9792	-0,8796	-1000000	-1000000	-1000000
61,80	-0,6888	0,9883	-0,8981	-1000000	-1000000	-1000000
62,40	-0,7022	0,9987	-0,9136	-1000000	-1000000	-1000000
63,00	-0,7146	1,008	-0,9293	-1000000	-1000000	-1000000
63,60	-0,7292	1,018	-0,9470	-1000000	-1000000	-1000000
64,20	-0,7435	1,028	-0,9639	-1000000	-1000000	-1000000
64,80	-0,7558	1,038	-0,9793	-1000000	-1000000	-1000000
65,40	-0,7695	1,049	-0,9964	-1000000	-1000000	-1000000
66,00	-0,7846	1,058	-1,015	-1000000	-1000000	-1000000
66,60	-0,7970	1,069	-1,029	-1000000	-1000000	-1000000
67,20	-0,8130	1,078	-1,049	-1000000	-1000000	-1000000
67,80	-0,8277	1,088	-1,066	-1000000	-1000000	-1000000
68,40	-0,8423	1,098	-1,084	-1000000	-1000000	-1000000
69,00	-0,8586	1,108	-1,104	-1000000	-1000000	-1000000
69,60	-0,8728	1,117	-1,121	-1000000	-1000000	-1000000
70,20	-0,8887	1,128	-1,141	-1000000	-1000000	-1000000
70,80	-0,9046	1,138	-1,159	-1000000	-1000000	-1000000
71,40	-0,9202	1,148	-1,178	-1000000	-1000000	-1000000
72,00	-0,9370	1,158	-1,199	-1000000	-1000000	-1000000
72,60	-0,9530	1,168	-1,218	-1000000	-1000000	-1000000
73,20	-0,9697	1,178	-1,238	-1000000	-1000000	-1000000
73,80	-0,9878	1,188	-1,259	-1000000	-1000000	-1000000
74,40	-1,004	1,199	-1,279	-1000000	-1000000	-1000000
75,00	-1,022	1,208	-1,300	-1000000	-1000000	-1000000
75,60	-1,040	1,219	-1,320	-1000000	-1000000	-1000000
76,20	-1,056	1,228	-1,342	-1000000	-1000000	-1000000
76,80	-1,074	1,238	-1,363	-1000000	-1000000	-1000000
77,40	-1,092	1,248	-1,384	-1000000	-1000000	-1000000
78,00	-1,110	1,258	-1,406	-1000000	-1000000	-1000000
78,60	-1,128	1,269	-1,428	-1000000	-1000000	-1000000
79,20	-1,147	1,278	-1,449	-1000000	-1000000	-1000000
79,80	-1,163	1,289	-1,470	-1000000	-1000000	-1000000
80,40	-1,182	1,298	-1,492	-1000000	-1000000	-1000000
81,00	-1,202	1,309	-1,515	-1000000	-1000000	-1000000
81,60	-1,219	1,318	-1,537	-1000000	-1000000	-1000000
82,20	-1,237	1,328	-1,557	-1000000	-1000000	-1000000
82,80	-1,255	1,338	-1,580	-1000000	-1000000	-1000000
83,40	-1,275	1,349	-1,603	-1000000	-1000000	-1000000
84,00	-1,294	1,358	-1,626	-1000000	-1000000	-1000000
84,60	-1,313	1,368	-1,648	-1000000	-1000000	-1000000
85,20	-1,331	1,378	-1,670	-1000000	-1000000	-1000000
85,80	-1,350	1,388	-1,692	-1000000	-1000000	-1000000
86,40	-1,371	1,399	-1,717	-1000000	-1000000	-1000000
87,00	-1,390	1,408	-1,740	-1000000	-1000000	-1000000
87,60	-1,408	1,419	-1,762	-1000000	-1000000	-1000000
88,20	-1,427	1,429	-1,783	-1000000	-1000000	-1000000
88,80	-1,446	1,439	-1,806	-1000000	-1000000	-1000000
89,40	-1,466	1,449	-1,830	-1000000	-1000000	-1000000
90,00	-1,486	1,459	-1,854	-1000000	-1000000	-1000000
90,60	-1,507	1,469	-1,877	-1000000	-1000000	-1000000
91,20	-1,525	1,478	-1,899	-1000000	-1000000	-1000000
91,80	-1,544	1,489	-1,922	-1000000	-1000000	-1000000
92,40	-1,564	1,499	-1,945	-1000000	-1000000	-1000000
93,00	-1,584	1,508	-1,969	-1000000	-1000000	-1000000
93,60	-1,605	1,518	-1,993	-1000000	-1000000	-1000000
94,20	-1,625	1,529	-2,018	-1000000	-1000000	-1000000
94,80	-1,645	1,538	-2,041	-1000000	-1000000	-1000000
95,40	-1,664	1,548	-2,063	-1000000	-1000000	-1000000
96,00	-1,683	1,558	-2,086	-1000000	-1000000	-1000000
96,60	-1,702	1,568	-2,108	-1000000	-1000000	-1000000
97,20	-1,723	1,578	-2,132	-1000000	-1000000	-1000000
97,80	-1,744	1,589	-2,157	-1000000	-1000000	-1000000
98,40	-1,764	1,599	-2,181	-1000000	-1000000	-1000000
99,00	-1,785	1,609	-2,205	-1000000	-1000000	-1000000
99,60	-1,804	1,619	-2,228	-1000000	-1000000	-1000000
100,20	-1,824	1,628	-2,252	-1000000	-1000000	-1000000
100,80	-1,845	1,639	-2,275	-1000000	-1000000	-1000000
101,40	-1,864	1,649	-2,299	-1000000	-1000000	-1000000
102,00	-1,885	1,659	-2,323	-1000000	-1000000	-1000000
102,60	-1,907	1,668	-2,347	-1000000	-1000000	-1000000
103,20	-1,927	1,678	-2,372	-1000000	-1000000	-1000000
103,80	-1,947	1,688	-2,395	-1000000	-1000000	-1000000
104,40	-1,968	1,699	-2,419	-1000000	-1000000	-1000000
105,00	-1,987	1,708	-2,441	-1000000	-1000000	-1000000
105,60	-2,006	1,719	-2,464	-1000000	-1000000	-1000000
106,20	-2,026	1,729	-2,488	-1000000	-1000000	-1000000
106,80	-2,047	1,739	-2,512	-1000000	-1000000	-1000000
107,40	-2,068	1,749	-2,536	-1000000	-1000000	-1000000
108,00	-2,089	1,759	-2,561	-1000000	-1000000	-1000000
108,60	-2,110	1,769	-2,585	-1000000	-1000000	-1000000
109,20	-2,131	1,779	-2,609	-1000000	-1000000	-1000000
109,80	-2,152	1,790	-2,633	-1000000	-1000000	-1000000
110,40	-2,172	1,799	-2,657	-1000000	-1000000	-1000000
111,00	-2,191	1,810	-2,679	-1000000	-1000000	-1000000
111,60	-2,213	1,819	-2,703	-1000000	-1000000	-1000000
112,20	-2,233	1,830	-2,727	-1000000	-1000000	-1000000
112,80	-2,255	1,839	-2,752	-1000000	-1000000	-1000000
113,40	-2,276	1,849	-2,777	-1000000	-1000000	-1000000
114,00	-2,296	1,858	-2,801	-1000000	-1000000	-1000000
114,60	-2,319	1,869	-2,826	-1000000	-1000000	-1000000
115,20	-2,341	1,879	-2,851	-1000000	-1000000	-1000000
115,80	-2,361	1,889	-2,876	-1000000	-1000000	-1000000
116,40	-2,383	1,898	-2,900	-1000000	-1000000	-1000000
117,00	-2,404	1,907	-2,924	-1000000	-1000000	-1000000
117,60	-2,424	1,918	-2,947	-1000000	-1000000	-1000000
118,20	-2,443	1,927	-2,971	-1000000	-1000000	-1000000
118,80	-2,465	1,938	-2,994	-1000000	-1000000	-1000000
119,40	-2,485	1,947	-3,019	-1000000	-1000000	-1000000
120,00	-2,507	1,958	-3,043	-1000000	-1000000	-1000000
120,60	-2,529	1,968	-3,068	-1000000	-1000000	-1000000
121,20	-2,550	1,978	-3,093	-1000000	-1000000	-1000000
121,80	-2,573	1,988	-3,118	-1000000	-1000000	-1000000
122,40	-2,595	1,997	-3,143	-1000000	-1000000	-1000000
123,00	-2,616	2,008	-3,168	-1000000	-1000000	-1000000
123,60	-2,638	2,018	-3,193	-1000000	-1000000	-1000000
124,20	-2,659	2,029	-3,217	-1000000	-1000000	-1000000
124,80	-2,680	2,038	-3,241	-1000000	-1000000	-1000000
125,40	-2,701	2,049	-3,265	-1000000	-1000000	-1000000
126,00	-2,722	2,058	-3,288	-1000000	-1000000	-1000000
126,60	-2,742	2,068	-3,312	-1000000	-1000000	-1000000
127,20	-2,764	2,078	-3,336	-1000000	-1000000	-1000000
127,80	-2,785	2,088	-3,361	-1000000	-1000000	-1000000
128,40	-2,807	2,099	-3,386	-1000000	-1000000	-1000000
129,00	-2,830	2,108	-3,411	-1000000	-1000000	-1000000
129,60	-2,852	2,118	-3,436	-1000000	-1000000	-1000000
130,20	-2,873	2,128	-3,462	-1000000	-1000000	-1000000
130,80	-2,895	2,138	-3,487	-1000000	-1000000	-1000000
131,40	-2,918	2,148	-3,512	-1000000	-1000000	-1000000
132,00	-2,940	2,158	-3,537	-1000000	-1000000	-1000000
132,60	-2,961	2,167	-3,561	-1000000	-1000000	-1000000
133,20	-2,984	2,178	-3,586	-1000000	-1000000	-1000000
133,80	-3,005	2,188	-3,610	-1000000	-1000000	-1000000
134,40	-3,027	2,199	-3,635	-1000000	-1000000	-1000000
135,00	-3,048	2,209	-3,658	-1000000	-1000000	-1000000
135,60	-3,069	2,219	-3,683	-1000000	-1000000	-1000000
136,20	-3,091	2,229	-3,708	-1000000	-1000000	-1000000
136,80	-3,113	2,238	-3,732	-1000000	-1000000	-1000000
137,40	-3,136	2,249	-3,758	-1000000	-1000000	-1000000
138,00	-3,157	2,258	-3,782	-1000000	-1000000	-1000000
138,60	-3,179	2,269	-3,807	-1000000	-1000000	-1000000
139,20	-3,201	2,279	-3,832	-1000000	-1000000	-1000000
139,80	-3,223	2,288	-3,857	-1000000	-1000000	-1000000
140,40	-3,246	2,298	-3,882	-1000000	-1000000	-1000000
141,00	-3,267	2,308	-3,907	-1000000	-1000000	-1000000
141,60	-3,290	2,318	-3,932	-1000000	-1000000	-1000000
142,20	-3,313	2,328	-3,957	-1000000	-1000000	-1000000
142,80	-3,334	2,338	-3,982	-1000000	-1000000	-1000000
143,40	-3,357	2,348	-4,007	-1000000	-1000000	-1000000
144,00	-3,378	2,359	-4,031	-1000000	-1000000	-1000000
144,60	-3,401	2,368	-4,056	-1000000	-1000000	-1000000
145,20	-3,422	2,379	-4,080	-1000000	-1000000	-1000000
145,80	-3,445	2,388	-4,105	-1000000	-1000000	-1000000
146,40	-3,404	2,398	-4,052	-1000000	-1000000	-1000000
147,00	-3,417	2,408	-4,072	-1000000	-1000000	-1000000
147,60	-3,444	2,418	-4,102	-1000000	-1000000	-1000000
148,20	-3,469	2,428	-4,131	-1000000	-1000000	-1000000
148,80	-3,489	2,438	-4,155	-1000000	-1000000	-1000000
149,40	-3,513	2,448	-4,182	-1000000	-1000000	-1000000
150,00	-3,537	2,457	-4,209	-1000000	-1000000	-1000000
150,60	-3,560	2,468	-4,235	-1000000	-1000000	-1000000
151,20	-3,584	2,478	-4,261	-1000000	-1000000	-1000000
151,80	-3,601	2,488	-4,282	-1000000	-1000000	-1000000
152,40	-3,625	2,498	-4,309	-1000000	-1000000	-1000000
153,00	-3,649	2,508	-4,336	-1000000	-1000000	-1000000
153,60	-3,673	2,518	-4,362	-1000000	-1000000	-1000000
154,20	-3,696	2,528	-4,389	-1000000	-1000000	-1000000
154,80	-3,719	2,538	-4,415	-1000000	-1000000	-1000000
155,40	-3,737	2,548	-4,435	-1000000	-1000000	-1000000
156,00	-3,761	2,559	-4,461	-1000000	-1000000	-1000000
156,60	-3,784	2,568	-4,487	-1000000	-1000000	-1000000
157,20	-3,806	2,579	-4,513	-1000000	-1000000	-1000000
157,80	-3,829	2,588	-4,539	-1000000	-1000000	-1000000
158,40	-3,851	2,598	-4,562	-1000000	-1000000	-1000000
159,00	-3,871	2,609	-4,585	-1000000	-1000000	-1000000
159,60	-3,887	2,619	-4,602	-1000000	-1000000	-1000000
160,20	-3,910	2,628	-4,629	-1000000	-1000000	-1000000
160,80	-3,933	2,639	-4,655	-1000000	-1000000	-1000000
161,40	-3,956	2,648	-4,681	-1000000	-1000000	-1000000
162,00	-3,980	2,658	-4,707	-1000000	-1000000	-1000000
162,60	-4,003	2,667	-4,733	-1000000	-1000000	-1000000
163,20	-4,025	2,678	-4,757	-1000000	-1000000	-1000000
163,80	-4,049	2,688	-4,784	-1000000	-1000000	-1000000
164,40	-4,072	2,698	-4,810	-1000000	-1000000	-1000000
165,00	-4,095	2,708	-4,837	-1000000	-1000000	-1000000
165,60	-4,112	2,718	-4,855	-1000000	-1000000	-1000000
166,20	-4,136	2,729	-4,883	-1000000	-1000000	-1000000
166,80	-4,161	2,738	-4,909	-1000000	-1000000	-1000000
167,40	-4,184	2,748	-4,935	-1000000	-1000000	-1000000
168,00	-4,208	2,758	-4,962	-1000000	-1000000	-1000000
168,60	-4,231	2,769	-4,988	-1000000	-1000000	-1000000
169,20	-4,255	2,778	-5,014	-1000000	-1000000	-1000000
169,80	-4,273	2,789	-5,034	-1000000	-1000000	-1000000
170,40	-4,297	2,798	-5,061	-1000000	-1000000	-1000000
171,00	-4,322	2,808	-5,088	-1000000	-1000000	-1000000
171,60	-4,345	2,818	-5,114	-1000000	-1000000	-1000000
172,20	-4,369	2,828	-5,139	-1000000	-1000000	-1000000
172,80	-4,391	2,838	-5,164	-1000000	-1000000	-1000000
173,40	-4,407	2,847	-5,182	-1000000	-1000000	-1000000
174,00	-4,431	2,858	-5,208	-1000000	-1000000	-1000000
174,60	-4,455	2,867	-5,235	-1000000	-1000000	-1000000
175,20	-4,480	2,878	-5,262	-1000000	-1000000	-1000000
175,80	-4,503	2,888	-5,288	-1000000	-1000000	-1000000
176,40	-4,528	2,898	-5,315	-1000000	-1000000	-1000000
177,00	-4,553	2,908	-5,338	-1000000	-1000000	-1000000
177,60	-4,578	2,917	-5,365	-1000000	-1000000	-1000000
178,20	-4,603	2,928	-5,393	-1000000	-1000000	-1000000
178,80	-4,627	2,937	-5,420	-1000000	-1000000	-1000000
179,40	-4,652	2,948	-5,447	-1000000	-1000000	-1000000
180,00	-4,669	2,957	-5,466	-1000000	-1000000	-1000000
180,60	-4,695	2,968	-5,494	-1000000	-1000000	-1000000
181,20	-4,720	2,978	-5,521	-1000000	-1000000	-1000000
181,80	-4,745	2,989	-5,549	-1000000	-1000000	-1000000
182,40	-4,771	2,998	-5,577	-1000000	-1000000	-1000000
183,00	-4,796	3,008	-5,604	-1000000	-1000000	-1000000
183,60	-4,821	3,018	-5,631	-1000000	-1000000	-1000000
184,20	-4,845	3,027	-5,658	-1000000	-1000000	-1000000
184,80	-4,869	3,038	-5,684	-1000000	-1000000	-1000000
185,40	-4,888	3,047	-5,705	-1000000	-1000000	-1000000
186,00	-4,913	3,058	-5,733	-1000000	-1000000	-1000000
186,60	-4,938	3,067	-5,760	-1000000	-1000000	-1000000
187,20	-4,963	3,078	-5,787	-1000000	-1000000	-1000000
187,80	-4,988	3,087	-5,814	-1000000	-1000000	-1000000
188,40	-5,011	3,098	-5,839	-1000000	-1000000	-1000000
189,00	-5,037	3,107	-5,867	-1000000	-1000000	-1000000
189,60	-5,062	3,117	-5,895	-1000000	-1000000	-1000000
190,20	-5,073	3,127	-5,907	-1000000	-1000000	-1000000
190,80	-5,094	3,137	-5,931	-1000000	-1000000	-1000000
191,40	-5,119	3,147	-5,958	-1000000	-1000000	-1000000
192,00	-5,145	3,157	-5,986	-1000000	-1000000	-1000000
192,60	-5,170	3,168	-6,013	-1000000	-1000000	-1000000
193,20	-5,196	3,177	-6,041	-1000000	-1000000	-1000000
193,80	-5,215	3,188	-6,061	-1000000	-1000000	-1000000
194,40	-5,240	3,196	-6,090	-1000000	-1000000	-1000000
195,00	-5,268	3,207	-6,118	-1000000	-1000000	-1000000
195,60	-5,293	3,217	-6,146	-1000000	-1000000	-1000000
196,20	-5,318	3,227	-6,173	-1000000	-1000000	-1000000
196,80	-5,344	3,237	-6,201	-1000000	-1000000	-1000000
197,40	-5,369	3,247	-6,228	-1000000	-1000000	-1000000
198,00	-5,394	3,258	-6,256	-1000000	-1000000	-1000000
198,60	-5,413	3,267	-6,274	-1000000	-1000000	-1000000
199,20	-5,435	3,278	-6,299	-1000000	-1000000	-1000000
199,80	-5,461	3,287	-6,327	-1000000	-1000000	-1000000
200,40	-5,488	3,297	-6,356	-1000000	-1000000	-1000000
201,00	-5,513	3,307	-6,384	-1000000	-1000000	-1000000
201,60	-5,538	3,318	-6,410	-1000000	-1000000	-1000000
202,20	-5,564	3,327	-6,438	-1000000	-1000000	-1000000
202,80	-5,584	3,337	-6,460	-1000000	-1000000	-1000000
203,40	-5,611	3,348	-6,488	-1000000	-1000000	-1000000
204,00	-5,636	3,357	-6,516	-1000000	-1000000	-1000000
204,60	-5,661	3,368	-6,543	-1000000	-1000000	-1000000
205,20	-5,682	3,377	-6,565	-1000000	-1000000	-1000000
205,80	-5,707	3,388	-6,592	-1000000	-1000000	-1000000
206,40	-5,733	3,397	-6,621	-1000000	-1000000	-1000000
207,00	-5,759	3,408	-6,648	-1000000	-1000000	-1000000
207,60	-5,785	3,417	-6,676	-1000000	-1000000	-1000000
208,20	-5,810	3,427	-6,703	-1000000	-1000000	-1000000
208,80	-5,830	3,437	-6,724	-1000000	-1000000	-1000000
209,40	-5,857	3,447	-6,753	-1000000	-1000000	-1000000
210,00	-5,881	3,457	-6,780	-1000000	-1000000	-1000000
210,60	-5,908	3,467	-6,808	-1000000	-1000000	-1000000
211,20	-5,933	3,477	-6,835	-1000000	-1000000	-1000000
211,80	-5,959	3,487	-6,863	-1000000	-1000000	-1000000
212,40	-5,979	3,498	-6,883	-1000000	-1000000	-1000000
213,00	-6,006	3,507	-6,912	-1000000	-1000000	-1000000
213,60	-6,032	3,517	-6,940	-1000000	-1000000	-1000000
214,20	-6,058	3,527	-6,968	-1000000	-1000000	-1000000
214,80	-6,084	3,537	-6,996	-1000000	-1000000	-1000000
215,40	-6,109	3,547	-7,023	-1000000	-1000000	-1000000
216,00	-6,135	3,557	-7,050	-1000000	-1000000	-1000000
216,60	-6,151	3,567	-7,066	-1000000	-1000000	-1000000
217,20	-6,172	3,577	-7,089	-1000000	-1000000	-1000000
217,80	-6,199	3,587	-7,117	-1000000	-1000000	-1000000
218,40	-6,224	3,597	-7,145	-1000000	-1000000	-1000000
219,00	-6,250	3,607	-7,172	-1000000	-1000000	-1000000
219,60	-6,273	3,617	-7,196	-1000000	-1000000	-1000000
220,20	-6,290	3,627	-7,216	-1000000	-1000000	-1000000
220,80	-6,317	3,636	-7,244	-1000000	-1000000	-1000000
221,40	-6,343	3,647	-7,272	-1000000	-1000000	-1000000
222,00	-6,367	3,656	-7,298	-1000000	-1000000	-1000000
222,60	-6,394	3,667	-7,325	-1000000	-1000000	-1000000
223,20	-6,419	3,677	-7,352	-1000000	-1000000	-1000000
223,80	-6,437	3,687	-7,369	-1000000	-1000000	-1000000
224,40	-6,461	3,697	-7,395	-1000000	-1000000	-1000000
225,00	-6,488	3,707	-7,424	-1000000	-1000000	-1000000
225,60	-6,513	3,718	-7,450	-1000000	-1000000	-1000000
226,20	-6,535	3,728	-7,474	-1000000	-1000000	-1000000
226,80	-6,561	3,737	-7,501	-1000000	-1000000	-1000000
227,40	-6,587	3,747	-7,528	-1000000	-1000000	-1000000
228,00	-6,612	3,757	-7,555	-1000000	-1000000	-1000000
228,60	-6,632	3,767	-7,576	-1000000	-1000000	-1000000
229,20	-6,658	3,777	-7,604	-1000000	-1000000	-1000000
229,80	-6,683	3,787	-7,630	-1000000	-1000000	-1000000
230,40	-6,708	3,798	-7,658	-1000000	-1000000	-1000000
231,00	-6,734	3,808	-7,685	-1000000	-1000000	-1000000
231,60	-6,749	3,817	-7,698	-1000000	-1000000	-1000000
232,20	-6,776	3,827	-7,727	-1000000	-1000000	-1000000
232,80	-6,801	3,837	-7,755	-1000000	-1000000	-1000000
233,40	-6,827	3,847	-7,782	-1000000	-1000000	-1000000
234,00	-6,853	3,857	-7,808	-1000000	-1000000	-1000000
234,60	-6,879	3,867	-7,836	-1000000	-1000000	-1000000
235,20	-6,895	3,877	-7,852	-1000000	-1000000	-1000000
235,80	-6,922	3,887	-7,880	-1000000	-1000000	-1000000
236,40	-6,949	3,897	-7,909	-1000000	-1000000	-1000000
237,00	-6,975	3,908	-7,937	-1000000	-1000000	-1000000
237,60	-6,996	3,917	-7,959	-1000000	-1000000	-1000000
238,20	-7,023	3,927	-7,987	-1000000	-1000000	-1000000
238,80	-7,049	3,937	-8,015	-1000000	-1000000	-1000000
239,40	-7,076	3,947	-8,043	-1000000	-1000000	-1000000
240,00	-7,095	3,957	-8,063	-1000000	-1000000	-1000000
240,60	-7,121	3,967	-8,088	-1000000	-1000000	-1000000
241,20	-7,095	3,977	-8,053	-1000000	-1000000	-1000000
241,80	-7,103	3,986	-8,061	-1000000	-1000000	-1000000
242,40	-7,130	3,997	-8,091	-1000000	-1000000	-1000000
243,00	-7,156	4,006	-8,119	-1000000	-1000000	-1000000
243,60	-7,184	4,017	-8,148	-1000000	-1000000	-1000000
244,20	-7,209	4,026	-8,175	-1000000	-1000000	-1000000
244,80	-7,214	4,036	-8,176	-1000000	-1000000	-1000000
245,40	-7,241	4,046	-8,205	-1000000	-1000000	-1000000
246,00	-7,268	4,056	-8,234	-1000000	-1000000	-1000000
246,60	-7,295	4,066	-8,262	-1000000	-1000000	-1000000
247,20	-7,321	4,076	-8,290	-1000000	-1000000	-1000000
247,80	-7,347	4,087	-8,318	-1000000	-1000000	-1000000
248,40	-7,371	4,096	-8,343	-1000000	-1000000	-1000000
249,00	-7,381	4,107	-8,355	-1000000	-1000000	-1000000
249,60	-7,410	4,116	-8,384	-1000000	-1000000	-1000000
250,20	-7,437	4,127	-8,413	-1000000	-1000000	-1000000
250,80	-7,463	4,137	-8,441	-1000000	-1000000	-1000000
251,40	-7,489	4,147	-8,469	-1000000	-1000000	-1000000
252,00	-7,516	4,157	-8,497	-1000000	-1000000	-1000000
252,60	-7,543	4,167	-8,525	-1000000	-1000000	-1000000
253,20	-7,555	4,177	-8,535	-1000000	-1000000	-1000000
253,80	-7,582	4,187	-8,564	-1000000	-1000000	-1000000
254,40	-7,609	4,197	-8,593	-1000000	-1000000	-1000000
255,00	-7,636	4,206	-8,621	-1000000	-1000000	-1000000
255,60	-7,663	4,217	-8,649	-1000000	-1000000	-1000000
256,20	-7,690	4,226	-8,677	-1000000	-1000000	-1000000
256,80	-7,703	4,237	-8,690	-1000000	-1000000	-1000000
257,40	-7,729	4,247	-8,717	-1000000	-1000000	-1000000
258,00	-7,756	4,257	-8,744	-1000000	-1000000	-1000000
258,60	-7,782	4,267	-8,772	-1000000	-1000000	-1000000
259,20	-7,808	4,276	-8,799	-1000000	-1000000	-1000000
259,80	-7,835	4,287	-8,827	-1000000	-1000000	-1000000
260,40	-7,852	4,297	-8,843	-1000000	-1000000	-1000000
261,00	-7,879	4,307	-8,871	-1000000	-1000000	-1000000
261,60	-7,906	4,317	-8,899	-1000000	-1000000	-1000000
262,20	-7,932	4,328	-8,927	-1000000	-1000000	-1000000
262,80	-7,959	4,337	-8,954	-1000000	-1000000	-1000000
263,40	-7,965	4,347	-8,959	-1000000	-1000000	-1000000
264,00	-7,992	4,358	-8,988	-1000000	-1000000	-1000000
264,60	-8,020	4,368	-9,016	-1000000	-1000000	-1000000
265,20	-8,047	4,377	-9,045	-1000000	-1000000	-1000000
265,80	-8,074	4,388	-9,073	-1000000	-1000000	-1000000
266,40	-8,101	4,397	-9,101	-1000000	-1000000	-1000000
267,00	-8,119	4,407	-9,118	-1000000	-1000000	-1000000
267,60	-8,146	4,417	-9,147	-1000000	-1000000	-1000000
268,20	-8,173	4,428	-9,175	-1000000	-1000000	-1000000
268,80	-8,200	4,438	-9,203	-1000000	-1000000	-1000000
269,40	-8,226	4,447	-9,230	-1000000	-1000000	-1000000
270,00	-8,251	4,458	-9,258	-1000000	-1000000	-1000000
270,60	-8,242	4,468	-9,253	-1000000	-1000000	-1000000
271,20	-8,270	4,477	-9,283	-1000000	-1000000	-1000000
271,80	-8,298	4,487	-9,312	-1000000	-1000000	-1000000
272,40	-8,326	4,497	-9,342	-1000000	-1000000	-1000000
273,00	-8,353	4,507	-9,370	-1000000	-1000000	-1000000
273,60	-8,381	4,517	-9,399	-1000000	-1000000	-1000000
274,20	-8,408	4,527	-9,427	-1000000	-1000000	-1000000
274,80	-8,435	4,538	-9,455	-1000000	-1000000	-1000000
275,40	-8,456	4,547	-9,473	-1000000	-1000000	-1000000
276,00	-8,472	4,557	-9,489	-1000000	-1000000	-1000000
276,60	-8,500	4,567	-9,518	-1000000	-1000000	-1000000
277,20	-8,528	4,577	-9,546	-1000000	-1000000	-1000000
277,80	-8,556	4,587	-9,575	-1000000	-1000000	-1000000
278,40	-8,583	4,597	-9,603	-1000000	-1000000	-1000000
279,00	-8,604	4,607	-9,624	-1000000	-1000000	-1000000
279,60	-8,633	4,617	-9,653	-1000000	-1000000	-1000000
280,20	-8,660	4,626	-9,682	-1000000	-1000000	-1000000
280,80	-8,688	4,637	-9,710	-1000000	-1000000	-1000000
281,40	-8,716	4,647	-9,738	-1000000	-1000000	-1000000
282,00	-8,697	4,657	-9,715	-1000000	-1000000	-1000000
282,60	-8,724	4,667	-9,745	-1000000	-1000000	-1000000
283,20	-8,753	4,678	-9,775	-1000000	-1000000	-1000000
283,80	-8,781	4,687	-9,804	-1000000	-1000000	-1000000
284,40	-8,809	4,697	-9,833	-1000000	-1000000	-1000000
285,00	-8,837	4,707	-9,861	-1000000	-1000000	-1000000
285,60	-8,865	4,717	-9,890	-1000000	-1000000	-1000000
286,20	-8,893	4,727	-9,918	-1000000	-1000000	-1000000
286,80	-8,919	4,737	-9,945	-1000000	-1000000	-1000000
287,40	-8,927	4,748	-9,948	-1000000	-1000000	-1000000
288,00	-8,951	4,756	-9,971	-1000000	-1000000	-1000000
288,60	-8,947	4,755	-9,969	-1000000	-1000000	-1000000
289,20	-8,943	4,755	-9,966	-1000000	-1000000	-1000000
289,80	-8,941	4,756	-9,963	-1000000	-1000000	-1000000
290,40	-8,939	4,755	-9,961	-1000000	-1000000	-1000000
291,00	-8,935	4,755	-9,959	-1000000	-1000000	-1000000
291,60	-8,935	4,755	-9,957	-1000000	-1000000	-1000000
292,20	-8,931	4,756	-9,955	-1000000	-1000000	-1000000
292,80	-8,930	4,756	-9,953	-1000000	-1000000	-1000000
293,40	-8,927	4,755	-9,951	-1000000	-1000000	-1000000
294,00	-8,927	4,756	-9,950	-1000000	-1000000	-1000000
294,60	-8,925	4,756	-9,948	-1000000	-1000000	-1000000
295,20	-8,922	4,756	-10,01	-1000000	-1000000	-1000000
295,80	-8,922	4,756	-10,09	-1000000	-1000000	-1000000
296,40	-8,919	4,756	-10,17	-1000000	-1000000	-1000000
297,00	-8,918	4,756	-10,73	-1000000	-1000000	-1000000
297,60	-8,917	4,756	-10,74	-1000000	-1000000	-1000000
298,20	-8,914	4,756	-10,23	-1000000	-1000000	-1000000
298,80	-8,913	4,756	1,808	-1000000	-1000000	-1000000
299,40	-8,910	4,756	3,672	-1000000	-1000000	-1000000
300,00	-8,910	4,756	3,313	-1000000	-1000000	-1000000
300,60	-8,907	4,756	2,804	-1000000	-1000000	-1000000
301,20	-8,907	4,756	2,828	-1000000	-1000000	-1000000
301,80	-8,905	4,756	2,072	-1000000	-1000000	-1000000
302,40	-8,902	4,756	2,094	-1000000	-1000000	-1000000
303,00	-8,902	4,756	2,132	-1000000	-1000000	-1000000
303,60	-8,902	4,756	2,153	-1000000	-1000000	-1000000
304,20	-8,900	4,756	2,429	-1000000	-1000000	-1000000
304,80	-8,898	4,756	2,558	-1000000	-1000000	-1000000
305,40	-8,898	4,756	2,547	-1000000	-1000000	-1000000
306,00	-8,897	4,756	2,551	-1000000	-1000000	-1000000
306,60	-8,894	4,756	2,519	-1000000	-1000000	-1000000
307,20	-8,894	4,756	2,523	-1000000	-1000000	-1000000
307,80	-8,894	4,756	2,526	-1000000	-1000000	-1000000
308,40	-8,875	4,756	2,528	-1000000	-1000000	-1000000
309,00	-8,873	4,755	2,529	-1000000	-1000000	-1000000
309,60	-8,874	4,756	2,528	-1000000	-1000000	-1000000
310,20	-8,874	4,756	2,528	-1000000	-1000000	-1000000
310,80	-8,873	4,756	2,527	-1000000	-1000000	-1000000
311,40	-8,870	4,756	2,527	-1000000	-1000000	-1000000
312,00	-8,870	4,756	2,528	-1000000	-1000000	-1000000
312,60	-8,870	4,756	2,527	-1000000	-1000000	-1000000
313,20	-8,870	4,756	2,527	-1000000	-1000000	-1000000
313,80	-8,868	4,756	2,527	-1000000	-1000000	-1000000
314,40	-8,866	4,756	2,527	-1000000	-1000000	-1000000
315,00	-8,866	4,756	2,528	-1000000	-1000000	-1000000
315,60	-8,866	4,756	2,528	-1000000	-1000000	-1000000
316,20	-8,865	4,755	2,529	-1000000	-1000000	-1000000
316,80	-8,863	4,755	2,529	-1000000	-1000000	-1000000
317,40	-8,862	4,755	2,529	-1000000	-1000000	-1000000
318,00	-8,862	4,755	2,529	-1000000	-1000000	-1000000
318,60	-8,862	4,755	2,529	-1000000	-1000000	-1000000
319,20	-8,861	4,756	2,530	-1000000	-1000000	-1000000
319,80	-8,859	4,756	2,530	-1000000	-1000000	-1000000
320,40	-8,858	4,755	2,530	-1000000	-1000000	-1000000
321,00	-8,858	4,755	2,530	-1000000	-1000000	-1000000
321,60	-8,858	4,755	2,530	-1000000	-1000000	-1000000
322,20	-8,857	4,755	2,531	-1000000	-1000000	-1000000
322,80	-8,856	4,756	2,531	-1000000	-1000000	-1000000
323,40	-8,867	4,759	2,531	-1000000	-1000000	-1000000
324,00	-8,898	4,769	2,531	-1000000	-1000000	-1000000
324,60	-8,931	4,780	2,531	-1000000	-1000000	-1000000
325,20	-8,961	4,789	2,532	-1000000	-1000000	-1000000
325,80	-8,992	4,800	2,532	-1000000	-1000000	-1000000
326,40	-9,023	4,809	2,532	-1000000	-1000000	-1000000
327,00	-9,054	4,820	2,532	-1000000	-1000000	-1000000
327,60	-9,045	4,830	2,532	-1000000	-1000000	-1000000
328,20	-9,080	4,840	2,532	-1000000	-1000000	-1000000
328,80	-9,111	4,850	2,532	-1000000	-1000000	-1000000
329,40	-9,141	4,860	2,533	-1000000	-1000000	-1000000
330,00	-9,170	4,870	2,533	-1000000	-1000000	-1000000
330,60	-9,200	4,880	2,533	-1000000	-1000000	-1000000
331,20	-9,229	4,889	2,533	-1000000	-1000000	-1000000
331,80	-9,259	4,899	2,533	-1000000	-1000000	-1000000
332,40	-9,288	4,910	2,533	-1000000	-1000000	-1000000
333,00	-9,317	4,919	2,533	-1000000	-1000000	-1000000
333,60	-9,346	4,929	2,533	-1000000	-1000000	-1000000
334,20	-9,374	4,939	2,533	-1000000	-1000000	-1000000
334,80	-9,402	4,949	2,533	-1000000	-1000000	-1000000
335,40	-9,431	4,959	2,533	-1000000	-1000000	-1000000
336,00	-9,458	4,969	2,533	-1000000	-1000000	-1000000
336,60	-9,464	4,980	2,533	-1000000	-1000000	-1000000
337,20	-9,494	4,990	2,533	-1000000	-1000000	-1000000
337,80	-9,523	5,000	2,533	-1000000	-1000000	-1000000
338,40	-9,552	5,010	2,534	-1000000	-1000000	-1000000
339,00	-9,581	5,019	2,534	-1000000	-1000000	-1000000
339,60	-9,610	5,029	2,534	-1000000	-1000000	-1000000
340,20	-9,638	5,040	2,534	-1000000	-1000000	-1000000
340,80	-9,664	5,050	2,534	-1000000	-1000000	-1000000
341,40	-9,684	5,060	2,534	-1000000	-1000000	-1000000
342,00	-9,713	5,070	2,534	-1000000	-1000000	-1000000
342,60	-9,741	5,080	2,534	-1000000	-1000000	-1000000
343,20	-9,769	5,089	2,534	-1000000	-1000000	-1000000
343,80	-9,798	5,100	2,534	-1000000	-1000000	-1000000
344,40	-9,820	5,109	2,534	-1000000	-1000000	-1000000
345,00	-9,847	5,120	2,534	-1000000	-1000000	-1000000
345,60	-9,876	5,130	2,534	-1000000	-1000000	-1000000
346,20	-9,904	5,140	2,534	-1000000	-1000000	-1000000
346,80	-9,882	5,150	2,535	-1000000	-1000000	-1000000
347,40	-9,912	5,159	2,534	-1000000	-1000000	-1000000
348,00	-9,941	5,170	2,535	-1000000	-1000000	-1000000
348,60	-9,970	5,179	2,535	-1000000	-1000000	-1000000
349,20	-9,999	5,189	2,535	-1000000	-1000000	-1000000
349,80	-10,03	5,199	2,535	-1000000	-1000000	-1000000
350,40	-10,06	5,210	2,535	-1000000	-1000000	-1000000
351,00	-10,08	5,219	2,535	-1000000	-1000000	-1000000
351,60	-10,11	5,230	2,535	-1000000	-1000000	-1000000
352,20	-10,14	5,239	2,535	-1000000	-1000000	-1000000
352,80	-10,17	5,249	2,535	-1000000	-1000000	-1000000
353,40	-10,18	5,259	2,535	-1000000	-1000000	-1000000
354,00	-10,20	5,269	2,535	-1000000	-1000000	-1000000
354,60	-10,23	5,279	2,535	-1000000	-1000000	-1000000
355,20	-10,26	5,289	2,535	-1000000	-1000000	-1000000
355,80	-10,29	5,300	2,535	-1000000	-1000000	-1000000
356,40	-10,31	5,309	2,535	-1000000	-1000000	-1000000
357,00	-10,33	5,320	2,535	-1000000	-1000000	-1000000
357,60	-10,36	5,329	2,535	-1000000	-1000000	-1000000
358,20	-10,39	5,341	2,535	-1000000	-1000000	-1000000
358,80	-10,42	5,354	2,536	-1000000	-1000000	-1000000
359,40	-10,44	5,363	2,535	-1000000	-1000000	-1000000
360,00	-10,47	5,374	2,536	-1000000	-1000000	-1000000
360,60	-10,45	5,383	2,536	-1000000	-1000000	-1000000
361,20	-10,48	5,394	2,536	-1000000	-1000000	-1000000
361,80	-10,51	5,404	2,536	-1000000	-1000000	-1000000
362,40	-10,54	5,414	2,536	-1000000	-1000000	-1000000
363,00	-10,56	5,423	2,536	-1000000	-1000000	-1000000
363,60	-10,59	5,434	2,536	-1000000	-1000000	-1000000
364,20	-10,62	5,443	2,536	-1000000	-1000000	-1000000
364,80	-10,65	5,454	2,536	-1000000	-1000000	-1000000
365,40	-10,67	5,464	2,536	-1000000	-1000000	-1000000
366,00	-10,69	5,474	2,536	-1000000	-1000000	-1000000
366,60	-10,71	5,484	2,536	-1000000	-1000000	-1000000
367,20	-10,74	5,494	2,536	-1000000	-1000000	-1000000
367,80	-10,77	5,505	2,537	-1000000	-1000000	-1000000
368,40	-10,79	5,514	2,537	-1000000	-1000000	-1000000
369,00	-10,82	5,524	2,537	-1000000	-1000000	-1000000
369,60	-10,85	5,533	2,537	-1000000	-1000000	-1000000
370,20	-10,87	5,544	2,537	-1000000	-1000000	-1000000
370,80	-10,90	5,553	2,537	-1000000	-1000000	-1000000
371,40	-10,93	5,564	2,537	-1000000	-1000000	-1000000
372,00	-10,95	5,574	2,537	-1000000	-1000000	-1000000
372,60	-10,93	5,584	2,537	-1000000	-1000000	-1000000
373,20	-10,96	5,594	2,537	-1000000	-1000000	-1000000
373,80	-10,99	5,604	2,537	-1000000	-1000000	-1000000
374,40	-11,02	5,614	2,537	-1000000	-1000000	-1000000
375,00	-11,05	5,624	2,537	-1000000	-1000000	-1000000
375,60	-11,08	5,634	2,537	-1000000	-1000000	-1000000
376,20	-11,10	5,644	2,537	-1000000	-1000000	-1000000
376,80	-11,13	5,654	2,537	-1000000	-1000000	-1000000
377,40	-11,14	5,664	2,537	-1000000	-1000000	-1000000
378,00	-11,17	5,674	2,537	-1000000	-1000000	-1000000
378,60	-11,19	5,684	2,537	-1000000	-1000000	-1000000
379,20	-11,22	5,694	2,537	-1000000	-1000000	-1000000
379,80	-11,24	5,704	2,537	-1000000	-1000000	-1000000
380,40	-11,27	5,713	2,537	-1000000	-1000000	-1000000
381,00	-11,29	5,724	2,537	-1000000	-1000000	-1000000
381,60	-11,31	5,734	2,537	-1000000	-1000000	-1000000
382,20	-11,34	5,744	2,537	-1000000	-1000000	-1000000
382,80	-11,36	5,754	2,537	-1000000	-1000000	-1000000
383,40	-11,38	5,764	2,537	-1000000	-1000000	-1000000
384,00	-11,40	5,774	2,537	-1000000	-1000000	-1000000
384,60	-11,41	5,784	2,538	-1000000	-1000000	-1000000
385,20	-11,43	5,794	2,537	-1000000	-1000000	-1000000
385,80	-11,46	5,804	2,538	-1000000	-1000000	-1000000
386,40	-11,48	5,814	2,537	-1000000	-1000000	-1000000
387,00	-11,51	5,824	2,538	-1000000	-1000000	-1000000
387,60	-11,53	5,834	2,538	-1000000	-1000000	-1000000
388,20	-11,55	5,844	2,538	-1000000	-1000000	-1000000
388,80	-11,57	5,854	2,538	-1000000	-1000000	-1000000
389,40	-11,59	5,864	2,538	-1000000	-1000000	-1000000
390,00	-11,61	5,874	2,538	-1000000	-1000000	-1000000
390,60	-11,64	5,885	2,538	-1000000	-1000000	-1000000
391,20	-11,66	5,895	2,538	-1000000	-1000000	-1000000
391,80	-11,69	5,905	2,538	-1000000	-1000000	-1000000
392,40	-11,71	5,915	2,538	-1000000	-1000000	-1000000
393,00	-11,73	5,925	2,538	-1000000	-1000000	-1000000
393,60	-11,76	5,935	2,538	-1000000	-1000000	-1000000
394,20	-11,78	5,945	2,538	-1000000	-1000000	-1000000
394,80	-11,77	5,954	2,538	-1000000	-1000000	-1000000
395,40	-11,78	5,964	2,538	-1000000	-1000000	-1000000
396,00	-11,80	5,974	2,538	-1000000	-1000000	-1000000
396,60	-11,83	5,985	2,538	-1000000	-1000000	-1000000
397,20	-11,86	5,994	2,538	-1000000	-1000000	-1000000
397,80	-11,88	6,005	2,538	-1000000	-1000000	-1000000
398,40	-11,91	6,014	2,538	-1000000	-1000000	-1000000
399,00	-11,93	6,024	2,538	-1000000	-1000000	-1000000
399,60	-11,95	6,034	2,538	-1000000	-1000000	-1000000
400,20	-11,96	6,045	2,538	-1000000	-1000000	-1000000
400,80	-11,97	6,055	2,538	-1000000	-1000000	-1000000
401,40	-11,99	6,063	2,538	-1000000	-1000000	-1000000
402,00	-12,02	6,073	2,538	-1000000	-1000000	-1000000
402,60	-12,04	6,083	2,538	-1000000	-1000000	-1000000
403,20	-12,06	6,093	2,538	-1000000	-1000000	-1000000
403,80	-12,08	6,103	2,538	-1000000	-1000000	-1000000
404,40	-12,11	6,114	2,538	-1000000	-1000000	-1000000
405,00	-12,13	6,123	2,538	-1000000	-1000000	-1000000
405,60	-12,15	6,133	2,538	-1000000	-1000000	-1000000
406,20	-12,17	6,143	2,538	-1000000	-1000000	-1000000
406,80	-12,19	6,153	2,538	-1000000	-1000000	-1000000
407,40	-12,20	6,162	2,538	-1000000	-1000000	-1000000
408,00	-12,23	6,172	2,538	-1000000	-1000000	-1000000
408,60	-12,25	6,184	2,538	-1000000	-1000000	-1000000
409,20	-12,27	6,193	2,538	-1000000	-1000000	-1000000
409,80	-12,30	6,203	2,538	-1000000	-1000000	-1000000
410,40	-12,32	6,213	2,538	-1000000	-1000000	-1000000
411,00	-12,33	6,224	2,539	-1000000	-1000000	-1000000
411,60	-12,36	6,233	2,539	-1000000	-1000000	-1000000
412,20	-12,38	6,243	2,539	-1000000	-1000000	-1000000
412,80	-12,40	6,253	2,539	-1000000	-1000000	-1000000
413,40	-12,41	6,263	2,539	-1000000	-1000000	-1000000
414,00	-12,43	6,273	2,539	-1000000	-1000000	-1000000
414,60	-12,46	6,283	2,539	-1000000	-1000000	-1000000
415,20	-12,48	6,294	2,539	-1000000	-1000000	-1000000
415,80	-12,50	6,303	2,539	-1000000	-1000000	-1000000
416,40	-12,53	6,313	2,539	-1000000	-1000000	-1000000
417,00	-12,55	6,322	2,539	-1000000	-1000000	-1000000
417,60	-12,55	6,333	2,539	-1000000	-1000000	-1000000
418,20	-12,58	6,343	2,539	-1000000	-1000000	-1000000
418,80	-12,60	6,353	2,539	-1000000	-1000000	-1000000
419,40	-12,63	6,362	2,539	-1000000	-1000000	-1000000
420,00	-12,65	6,373	2,539	-1000000	-1000000	-1000000
420,60	-12,67	6,383	2,539	-1000000	-1000000	-1000000
421,20	-12,70	6,393	2,539	-1000000	-1000000	-1000000
421,80	-12,71	6,403	2,539	-1000000	-1000000	-1000000
422,40	-12,73	6,412	2,539	-1000000	-1000000	-1000000
423,00	-12,75	6,423	2,539	-1000000	-1000000	-1000000
423,60	-12,78	6,432	2,539	-1000000	-1000000	-1000000
424,20	-12,80	6,443	2,539	-1000000	-1000000	-1000000
424,80	-12,82	6,453	2,539	-1000000	-1000000	-1000000
425,40	-12,84	6,463	2,539	-1000000	-1000000	-1000000
426,00	-12,86	6,473	2,539	-1000000	-1000000	-1000000
426,60	-12,89	6,483	2,539	-1000000	-1000000	-1000000
427,20	-12,91	6,493	2,539	-1000000	-1000000	-1000000
427,80	-12,86	6,503	2,539	-1000000	-1000000	-1000000
428,40	-12,89	6,513	2,539	-1000000	-1000000	-1000000
429,00	-12,92	6,522	2,539	-1000000	-1000000	-1000000
429,60	-12,94	6,533	2,539	-1000000	-1000000	-1000000
430,20	-12,97	6,543	2,539	-1000000	-1000000	-1000000
430,80	-12,99	6,554	2,539	-1000000	-1000000	-1000000
431,40	-13,02	6,563	2,539	-1000000	-1000000	-1000000
432,00	-13,03	6,573	2,539	-1000000	-1000000	-1000000
432,60	-13,06	6,583	2,539	-1000000	-1000000	-1000000
433,20	-13,08	6,593	2,539	-1000000	-1000000	-1000000
433,80	-13,11	6,603	2,539	-1000000	-1000000	-1000000
434,40	-13,13	6,613	2,539	-1000000	-1000000	-1000000
435,00	-13,16	6,623	2,539	-1000000	-1000000	-1000000
435,60	-13,18	6,632	2,539	-1000000	-1000000	-1000000
436,20	-13,20	6,643	2,539	-1000000	-1000000	-1000000
436,80	-13,22	6,652	2,539	-1000000	-1000000	-1000000
437,40	-13,25	6,662	2,539	-1000000	-1000000	-1000000
438,00	-13,26	6,672	2,539	-1000000	-1000000	-1000000
438,60	-13,28	6,683	2,539	-1000000	-1000000	-1000000
439,20	-13,30	6,693	2,539	-1000000	-1000000	-1000000
439,80	-13,32	6,703	2,540	-1000000	-1000000	-1000000
440,40	-13,34	6,712	2,539	-1000000	-1000000	-1000000
441,00	-13,36	6,722	2,540	-1000000	-1000000	-1000000
441,60	-13,37	6,733	2,540	-1000000	-1000000	-1000000
442,20	-13,39	6,742	2,540	-1000000	-1000000	-1000000
442,80	-13,42	6,753	2,540	-1000000	-1000000	-1000000
443,40	-13,44	6,762	2,540	-1000000	-1000000	-1000000
444,00	-13,46	6,772	2,540	-1000000	-1000000	-1000000
444,60	-13,48	6,781	2,540	-1000000	-1000000	-1000000
445,20	-13,51	6,792	2,540	-1000000	-1000000	-1000000
445,80	-13,52	6,802	2,540	-1000000	-1000000	-1000000
446,40	-13,55	6,812	2,540	-1000000	-1000000	-1000000
447,00	-13,57	6,822	2,540	-1000000	-1000000	-1000000
447,60	-13,60	6,832	2,540	-1000000	-1000000	-1000000
448,20	-13,62	6,842	2,540	-1000000	-1000000	-1000000
448,80	-13,64	6,852	2,540	-1000000	-1000000	-1000000
449,40	-13,66	6,863	2,540	-1000000	-1000000	-1000000
450,00	-13,68	6,872	2,540	-1000000	-1000000	-1000000
450,60	-13,70	6,882	2,540	-1000000	-1000000	-1000000
451,20	-0,6182	6,892	2,520	-1000000	-1000000	-1000000
451,80	0,00366	6,902	2,457	-1000000	-1000000	-1000000
452,40	0,00206	6,912	2,455	-1000000	-1000000	-1000000
453,00	-0,00063	6,922	2,454	-1000000	-1000000	-1000000
453,60	-0,00118	6,932	2,453	-1000000	-1000000	-1000000
454,20	-0,00091	6,942	2,453	-1000000	-1000000	-1000000
454,80	-0,00315	6,952	2,452	-1000000	-1000000	-1000000
455,40	-0,00499	6,962	2,452	-1000000	-1000000	-1000000
456,00	-0,00497	6,972	2,452	-1000000	-1000000	-1000000
456,60	-0,00521	6,981	2,451	-1000000	-1000000	-1000000
457,20	-0,00500	6,992	2,451	-1000000	-1000000	-1000000
457,80	-0,00566	7,002	2,451	-1000000	-1000000	-1000000
458,40	-0,00513	7,012	2,451	-1000000	-1000000	-1000000
459,00	-0,00597	7,022	2,451	-1000000	-1000000	-1000000
459,60	-0,00633	7,032	2,451	-1000000	-1000000	-1000000
460,20	-0,00719	7,041	2,451	-1000000	-1000000	-1000000
460,80	-0,00764	7,052	2,450	-1000000	-1000000	-1000000
461,40	-0,00837	7,062	2,450	-1000000	-1000000	-1000000
462,00	-0,00943	7,072	2,450	-1000000	-1000000	-1000000
462,60	-0,00920	7,081	2,450	-1000000	-1000000	-1000000
463,20	-0,00900	7,092	2,450	-1000000	-1000000	-1000000
463,80	-0,00926	7,101	2,450	-1000000	-1000000	-1000000
464,40	-0,00921	7,111	2,450	-1000000	-1000000	-1000000
464,70	-0,00961	7,116	2,450	-1000000	-1000000	-1000000