File: notebooks/experimental_tests/results/carbon_tensile_tests/F4.txt
Zeit  1 - Standardmessrate [s]	Kraft [kN]	Weg [mm]	DD1 [Prom]	PMX_1 CH 3-2 [µm/m]	PMX_1 CH 3-3 [mm]	PMX_1 CH 3-4 [mm]
0	-0,04941	0,000	0,000	-1000000	-1000000	-1000000
0,5000	-0,04989	0,000	0,000	-1000000	-1000000	-1000000
1,000	-0,04959	-0,00024	0,000	-1000000	-1000000	-1000000
1,500	-0,04978	-0,00076	0,000	-1000000	-1000000	-1000000
2,000	-0,04999	-0,00012	0,000	-1000000	-1000000	-1000000
2,500	-0,04947	-0,00050	0,000	-1000000	-1000000	-1000000
3,000	-0,04965	0,000	0,000	-1000000	-1000000	-1000000
3,500	-0,04961	-0,00059	0,000	-1000000	-1000000	-1000000
4,000	-0,04920	-0,00049	0,000	-1000000	-1000000	-1000000
4,500	-0,05214	0,00693	-0,00675	-1000000	-1000000	-1000000
5,000	-0,06461	0,01574	-0,03176	-1000000	-1000000	-1000000
5,500	-0,07668	0,02378	-0,05545	-1000000	-1000000	-1000000
6,000	-0,08726	0,03193	-0,07862	-1000000	-1000000	-1000000
6,500	-0,09858	0,04040	-0,1017	-1000000	-1000000	-1000000
7,000	-0,1105	0,04858	-0,1237	-1000000	-1000000	-1000000
7,500	-0,1211	0,05761	-0,1456	-1000000	-1000000	-1000000
8,000	-0,1322	0,06557	-0,1660	-1000000	-1000000	-1000000
8,500	-0,1416	0,07368	-0,1842	-1000000	-1000000	-1000000
9,000	-0,1496	0,08124	-0,1997	-1000000	-1000000	-1000000
9,500	-0,1500	0,08105	-0,2013	-1000000	-1000000	-1000000
10,00	-0,1484	0,08105	-0,2015	-1000000	-1000000	-1000000
10,50	-0,1478	0,08110	-0,2018	-1000000	-1000000	-1000000
11,00	-0,1480	0,08060	-0,2020	-1000000	-1000000	-1000000
11,50	-0,1479	0,08101	-0,2018	-1000000	-1000000	-1000000
12,00	-0,1478	0,08149	-0,2019	-1000000	-1000000	-1000000
12,50	-0,1476	0,08113	-0,2019	-1000000	-1000000	-1000000
13,00	-0,1475	0,08187	-0,2020	-1000000	-1000000	-1000000
13,50	-0,1472	0,08145	-0,2019	-1000000	-1000000	-1000000
14,00	-0,1470	11,93	-0,2018	-1000000	-1000000	-1000000
14,50	-0,1472	13,38	-0,2018	-1000000	-1000000	-1000000
15,00	-0,1472	13,38	-0,2017	-1000000	-1000000	-1000000
15,50	-0,1473	13,38	-0,2017	-1000000	-1000000	-1000000
16,00	-0,1470	13,38	-0,2016	-1000000	-1000000	-1000000
16,50	-0,1471	13,38	-0,2015	-1000000	-1000000	-1000000
17,00	-0,1472	13,38	-0,2015	-1000000	-1000000	-1000000
17,50	-0,1472	13,38	-0,2014	-1000000	-1000000	-1000000
18,00	-0,1477	13,38	-0,2014	-1000000	-1000000	-1000000
18,50	-0,1476	13,38	-0,2014	-1000000	-1000000	-1000000
19,00	-0,1474	13,38	-0,2013	-1000000	-1000000	-1000000
19,50	-0,1480	13,38	-0,2046	-1000000	-1000000	-1000000
20,00	-0,1623	13,39	-0,2262	-1000000	-1000000	-1000000
20,50	-0,1690	13,40	-0,2393	-1000000	-1000000	-1000000
21,00	-0,1791	13,41	-0,2550	-1000000	-1000000	-1000000
21,50	-0,1885	13,42	-0,2705	-1000000	-1000000	-1000000
22,00	-0,1981	13,43	-0,2859	-1000000	-1000000	-1000000
22,50	-0,2098	13,43	-0,3037	-1000000	-1000000	-1000000
23,00	-0,2202	13,44	-0,3200	-1000000	-1000000	-1000000
23,50	-0,2281	13,45	-0,3329	-1000000	-1000000	-1000000
24,00	-0,2367	13,46	-0,3460	-1000000	-1000000	-1000000
24,50	-0,2411	13,47	-0,3542	-1000000	-1000000	-1000000
25,00	-0,2485	13,47	-0,3654	-1000000	-1000000	-1000000
25,50	-0,2526	13,48	-0,3729	-1000000	-1000000	-1000000
26,00	-0,2559	13,49	-0,3781	-1000000	-1000000	-1000000
26,50	-0,2600	13,50	-0,3842	-1000000	-1000000	-1000000
27,00	-0,2645	13,51	-0,3921	-1000000	-1000000	-1000000
27,50	-0,2646	13,52	-0,3937	-1000000	-1000000	-1000000
28,00	-0,2651	13,53	-0,3947	-1000000	-1000000	-1000000
28,50	-0,2675	13,53	-0,3962	-1000000	-1000000	-1000000
29,00	-0,2687	13,54	-0,3974	-1000000	-1000000	-1000000
29,50	-0,2686	13,55	-0,3984	-1000000	-1000000	-1000000
30,00	-0,2687	13,56	-0,3993	-1000000	-1000000	-1000000
30,50	-0,2689	13,57	-0,4001	-1000000	-1000000	-1000000
31,00	-0,2689	13,58	-0,4014	-1000000	-1000000	-1000000
31,50	-0,2691	13,58	-0,4019	-1000000	-1000000	-1000000
32,00	-0,2708	13,59	-0,4040	-1000000	-1000000	-1000000
32,50	-0,2732	13,60	-0,4076	-1000000	-1000000	-1000000
33,00	-0,2772	13,61	-0,4133	-1000000	-1000000	-1000000
33,50	-0,2837	13,62	-0,4223	-1000000	-1000000	-1000000
34,00	-0,2911	13,62	-0,4325	-1000000	-1000000	-1000000
34,50	-0,2967	13,63	-0,4391	-1000000	-1000000	-1000000
35,00	-0,2972	13,64	-0,4392	-1000000	-1000000	-1000000
35,50	-0,2978	13,65	-0,4399	-1000000	-1000000	-1000000
36,00	-0,2977	13,66	-0,4406	-1000000	-1000000	-1000000
36,50	-0,2977	13,67	-0,4420	-1000000	-1000000	-1000000
37,00	-0,3000	13,68	-0,4450	-1000000	-1000000	-1000000
37,50	-0,3019	13,68	-0,4484	-1000000	-1000000	-1000000
38,00	-0,3060	13,69	-0,4530	-1000000	-1000000	-1000000
38,50	-0,3126	13,70	-0,4626	-1000000	-1000000	-1000000
39,00	-0,3189	13,71	-0,4717	-1000000	-1000000	-1000000
39,50	-0,3229	13,72	-0,4781	-1000000	-1000000	-1000000
40,00	-0,3260	13,73	-0,4818	-1000000	-1000000	-1000000
40,50	-0,3286	13,73	-0,4846	-1000000	-1000000	-1000000
41,00	-0,3304	13,74	-0,4871	-1000000	-1000000	-1000000
41,50	-0,3314	13,75	-0,4891	-1000000	-1000000	-1000000
42,00	-0,3345	13,76	-0,4911	-1000000	-1000000	-1000000
42,50	-0,3341	13,77	-0,4929	-1000000	-1000000	-1000000
43,00	-0,3367	13,78	-0,4949	-1000000	-1000000	-1000000
43,50	-0,3388	13,78	-0,4966	-1000000	-1000000	-1000000
44,00	-0,3387	13,79	-0,4984	-1000000	-1000000	-1000000
44,50	-0,3401	13,80	-0,5004	-1000000	-1000000	-1000000
45,00	-0,3420	13,81	-0,5016	-1000000	-1000000	-1000000
45,50	-0,3427	13,82	-0,5043	-1000000	-1000000	-1000000
46,00	-0,3467	13,83	-0,5087	-1000000	-1000000	-1000000
46,50	-0,3544	13,83	-0,5182	-1000000	-1000000	-1000000
47,00	-0,3627	13,84	-0,5305	-1000000	-1000000	-1000000
47,50	-0,3724	13,85	-0,5433	-1000000	-1000000	-1000000
48,00	-0,3829	13,86	-0,5573	-1000000	-1000000	-1000000
48,50	-0,3907	13,87	-0,5685	-1000000	-1000000	-1000000
49,00	-0,4025	13,87	-0,5846	-1000000	-1000000	-1000000
49,50	-0,4115	13,88	-0,5955	-1000000	-1000000	-1000000
50,00	-0,4180	13,89	-0,6042	-1000000	-1000000	-1000000
50,50	-0,4273	13,90	-0,6159	-1000000	-1000000	-1000000
51,00	-0,4372	13,91	-0,6280	-1000000	-1000000	-1000000
51,50	-0,4477	13,92	-0,6423	-1000000	-1000000	-1000000
52,00	-0,4590	13,92	-0,6564	-1000000	-1000000	-1000000
52,50	-0,4683	13,93	-0,6695	-1000000	-1000000	-1000000
53,00	-0,4802	13,94	-0,6841	-1000000	-1000000	-1000000
53,50	-0,4913	13,95	-0,6992	-1000000	-1000000	-1000000
54,00	-0,5039	13,96	-0,7147	-1000000	-1000000	-1000000
54,50	-0,5156	13,97	-0,7297	-1000000	-1000000	-1000000
55,00	-0,5279	13,98	-0,7455	-1000000	-1000000	-1000000
55,50	-0,4500	13,98	-0,6491	-1000000	-1000000	-1000000
56,00	-0,4671	13,99	-0,6727	-1000000	-1000000	-1000000
56,50	-0,4865	14,00	-0,6964	-1000000	-1000000	-1000000
57,00	-0,5038	14,01	-0,7188	-1000000	-1000000	-1000000
57,50	-0,5202	14,02	-0,7397	-1000000	-1000000	-1000000
58,00	-0,5374	14,03	-0,7606	-1000000	-1000000	-1000000
58,50	-0,5532	14,03	-0,7810	-1000000	-1000000	-1000000
59,00	-0,5692	14,04	-0,8012	-1000000	-1000000	-1000000
59,50	-0,5849	14,05	-0,8214	-1000000	-1000000	-1000000
60,00	-0,6013	14,06	-0,8415	-1000000	-1000000	-1000000
60,50	-0,6177	14,07	-0,8618	-1000000	-1000000	-1000000
61,00	-0,6334	14,08	-0,8822	-1000000	-1000000	-1000000
61,50	-0,6487	14,08	-0,9023	-1000000	-1000000	-1000000
62,00	-0,6647	14,09	-0,9219	-1000000	-1000000	-1000000
62,50	-0,6820	14,10	-0,9424	-1000000	-1000000	-1000000
63,00	-0,6963	14,11	-0,9621	-1000000	-1000000	-1000000
63,50	-0,7127	14,12	-0,9824	-1000000	-1000000	-1000000
64,00	-0,7291	14,12	-1,003	-1000000	-1000000	-1000000
64,50	-0,7463	14,13	-1,024	-1000000	-1000000	-1000000
65,00	-0,7634	14,14	-1,045	-1000000	-1000000	-1000000
65,50	-0,7803	14,15	-1,066	-1000000	-1000000	-1000000
66,00	-0,7967	14,16	-1,087	-1000000	-1000000	-1000000
66,50	-0,8122	14,17	-1,106	-1000000	-1000000	-1000000
67,00	-0,8282	14,17	-1,127	-1000000	-1000000	-1000000
67,50	-0,8448	14,18	-1,148	-1000000	-1000000	-1000000
68,00	-0,8625	14,19	-1,168	-1000000	-1000000	-1000000
68,50	-0,8788	14,20	-1,189	-1000000	-1000000	-1000000
69,00	-0,8953	14,21	-1,209	-1000000	-1000000	-1000000
69,50	-0,9123	14,22	-1,230	-1000000	-1000000	-1000000
70,00	-0,9286	14,23	-1,250	-1000000	-1000000	-1000000
70,50	-0,9458	14,23	-1,271	-1000000	-1000000	-1000000
71,00	-0,9624	14,24	-1,292	-1000000	-1000000	-1000000
71,50	-0,9793	14,25	-1,312	-1000000	-1000000	-1000000
72,00	-0,9957	14,26	-1,333	-1000000	-1000000	-1000000
72,50	-1,011	14,27	-1,352	-1000000	-1000000	-1000000
73,00	-1,028	14,28	-1,373	-1000000	-1000000	-1000000
73,50	-1,045	14,28	-1,394	-1000000	-1000000	-1000000
74,00	-1,062	14,29	-1,416	-1000000	-1000000	-1000000
74,50	-1,079	14,30	-1,436	-1000000	-1000000	-1000000
75,00	-1,096	14,31	-1,457	-1000000	-1000000	-1000000
75,50	-1,114	14,32	-1,479	-1000000	-1000000	-1000000
76,00	-1,130	14,32	-1,500	-1000000	-1000000	-1000000
76,50	-1,149	14,33	-1,522	-1000000	-1000000	-1000000
77,00	-1,166	14,34	-1,543	-1000000	-1000000	-1000000
77,50	-1,183	14,35	-1,565	-1000000	-1000000	-1000000
78,00	-1,201	14,36	-1,586	-1000000	-1000000	-1000000
78,50	-1,219	14,37	-1,607	-1000000	-1000000	-1000000
79,00	-1,236	14,38	-1,629	-1000000	-1000000	-1000000
79,50	-1,254	14,38	-1,651	-1000000	-1000000	-1000000
80,00	-1,271	14,39	-1,672	-1000000	-1000000	-1000000
80,50	-1,289	14,40	-1,693	-1000000	-1000000	-1000000
81,00	-1,307	14,41	-1,715	-1000000	-1000000	-1000000
81,50	-1,325	14,42	-1,737	-1000000	-1000000	-1000000
82,00	-1,342	14,42	-1,759	-1000000	-1000000	-1000000
82,50	-1,360	14,43	-1,781	-1000000	-1000000	-1000000
83,00	-1,378	14,44	-1,803	-1000000	-1000000	-1000000
83,50	-1,396	14,45	-1,825	-1000000	-1000000	-1000000
84,00	-1,415	14,46	-1,847	-1000000	-1000000	-1000000
84,50	-1,433	14,47	-1,869	-1000000	-1000000	-1000000
85,00	-1,451	14,47	-1,892	-1000000	-1000000	-1000000
85,50	-1,469	14,48	-1,913	-1000000	-1000000	-1000000
86,00	-1,487	14,49	-1,935	-1000000	-1000000	-1000000
86,50	-1,506	14,50	-1,957	-1000000	-1000000	-1000000
87,00	-1,524	14,51	-1,980	-1000000	-1000000	-1000000
87,50	-1,541	14,52	-2,001	-1000000	-1000000	-1000000
88,00	-1,560	14,52	-2,024	-1000000	-1000000	-1000000
88,50	-1,578	14,53	-2,046	-1000000	-1000000	-1000000
89,00	-1,596	14,54	-2,068	-1000000	-1000000	-1000000
89,50	-1,615	14,55	-2,090	-1000000	-1000000	-1000000
90,00	-1,634	14,56	-2,113	-1000000	-1000000	-1000000
90,50	-1,652	14,57	-2,135	-1000000	-1000000	-1000000
91,00	-1,671	14,57	-2,158	-1000000	-1000000	-1000000
91,50	-1,689	14,58	-2,180	-1000000	-1000000	-1000000
92,00	-1,708	14,59	-2,202	-1000000	-1000000	-1000000
92,50	-1,726	14,60	-2,224	-1000000	-1000000	-1000000
93,00	-1,745	14,61	-2,246	-1000000	-1000000	-1000000
93,50	-1,763	14,62	-2,269	-1000000	-1000000	-1000000
94,00	-1,782	14,62	-2,292	-1000000	-1000000	-1000000
94,50	-1,800	14,63	-2,314	-1000000	-1000000	-1000000
95,00	-1,819	14,64	-2,336	-1000000	-1000000	-1000000
95,50	-1,838	14,65	-2,359	-1000000	-1000000	-1000000
96,00	-1,857	14,66	-2,381	-1000000	-1000000	-1000000
96,50	-1,876	14,67	-2,404	-1000000	-1000000	-1000000
97,00	-1,894	14,67	-2,426	-1000000	-1000000	-1000000
97,50	-1,913	14,68	-2,448	-1000000	-1000000	-1000000
98,00	-1,932	14,69	-2,471	-1000000	-1000000	-1000000
98,50	-1,950	14,70	-2,493	-1000000	-1000000	-1000000
99,00	-1,968	14,71	-2,516	-1000000	-1000000	-1000000
99,50	-1,987	14,72	-2,538	-1000000	-1000000	-1000000
100,00	-2,006	14,72	-2,561	-1000000	-1000000	-1000000
100,50	-2,025	14,73	-2,583	-1000000	-1000000	-1000000
101,00	-2,044	14,74	-2,606	-1000000	-1000000	-1000000
101,50	-2,062	14,75	-2,628	-1000000	-1000000	-1000000
102,00	-2,080	14,76	-2,651	-1000000	-1000000	-1000000
102,50	-2,099	14,77	-2,673	-1000000	-1000000	-1000000
103,00	-2,117	14,77	-2,695	-1000000	-1000000	-1000000
103,50	-2,136	14,78	-2,717	-1000000	-1000000	-1000000
104,00	-2,155	14,79	-2,740	-1000000	-1000000	-1000000
104,50	-2,173	14,80	-2,762	-1000000	-1000000	-1000000
105,00	-2,193	14,81	-2,784	-1000000	-1000000	-1000000
105,50	-2,212	14,82	-2,807	-1000000	-1000000	-1000000
106,00	-2,231	14,82	-2,829	-1000000	-1000000	-1000000
106,50	-2,250	14,83	-2,852	-1000000	-1000000	-1000000
107,00	-2,269	14,84	-2,875	-1000000	-1000000	-1000000
107,50	-2,288	14,85	-2,897	-1000000	-1000000	-1000000
108,00	-2,306	14,86	-2,920	-1000000	-1000000	-1000000
108,50	-2,326	14,87	-2,942	-1000000	-1000000	-1000000
109,00	-2,344	14,87	-2,965	-1000000	-1000000	-1000000
109,50	-2,363	14,88	-2,987	-1000000	-1000000	-1000000
110,00	-2,382	14,89	-3,009	-1000000	-1000000	-1000000
110,50	-2,401	14,90	-3,031	-1000000	-1000000	-1000000
111,00	-2,420	14,91	-3,054	-1000000	-1000000	-1000000
111,50	-2,438	14,92	-3,076	-1000000	-1000000	-1000000
112,00	-2,458	14,92	-3,099	-1000000	-1000000	-1000000
112,50	-2,477	14,93	-3,122	-1000000	-1000000	-1000000
113,00	-2,496	14,94	-3,144	-1000000	-1000000	-1000000
113,50	-2,515	14,95	-3,167	-1000000	-1000000	-1000000
114,00	-2,534	14,96	-3,189	-1000000	-1000000	-1000000
114,50	-2,553	14,97	-3,211	-1000000	-1000000	-1000000
115,00	-2,572	14,97	-3,234	-1000000	-1000000	-1000000
115,50	-2,592	14,98	-3,256	-1000000	-1000000	-1000000
116,00	-2,610	14,99	-3,278	-1000000	-1000000	-1000000
116,50	-2,629	15,00	-3,301	-1000000	-1000000	-1000000
117,00	-2,649	15,01	-3,323	-1000000	-1000000	-1000000
117,50	-2,667	15,02	-3,346	-1000000	-1000000	-1000000
118,00	-2,686	15,02	-3,368	-1000000	-1000000	-1000000
118,50	-2,706	15,03	-3,391	-1000000	-1000000	-1000000
119,00	-2,724	15,04	-3,413	-1000000	-1000000	-1000000
119,50	-2,743	15,05	-3,435	-1000000	-1000000	-1000000
120,00	-2,762	15,06	-3,457	-1000000	-1000000	-1000000
120,50	-2,780	15,07	-3,479	-1000000	-1000000	-1000000
121,00	-2,799	15,07	-3,501	-1000000	-1000000	-1000000
121,50	-2,817	15,08	-3,523	-1000000	-1000000	-1000000
122,00	-2,836	15,09	-3,545	-1000000	-1000000	-1000000
122,50	-2,855	15,10	-3,567	-1000000	-1000000	-1000000
123,00	-2,873	15,11	-3,588	-1000000	-1000000	-1000000
123,50	-2,892	15,12	-3,610	-1000000	-1000000	-1000000
124,00	-2,911	15,12	-3,632	-1000000	-1000000	-1000000
124,50	-2,930	15,13	-3,655	-1000000	-1000000	-1000000
125,00	-2,949	15,14	-3,676	-1000000	-1000000	-1000000
125,50	-2,967	15,15	-3,699	-1000000	-1000000	-1000000
126,00	-2,986	15,16	-3,720	-1000000	-1000000	-1000000
126,50	-3,005	15,17	-3,742	-1000000	-1000000	-1000000
127,00	-3,023	15,17	-3,764	-1000000	-1000000	-1000000
127,50	-3,042	15,18	-3,785	-1000000	-1000000	-1000000
128,00	-3,060	15,19	-3,807	-1000000	-1000000	-1000000
128,50	-3,078	15,20	-3,828	-1000000	-1000000	-1000000
129,00	-3,095	15,21	-3,848	-1000000	-1000000	-1000000
129,50	-3,113	15,22	-3,869	-1000000	-1000000	-1000000
130,00	-3,131	15,22	-3,891	-1000000	-1000000	-1000000
130,50	-3,149	15,23	-3,912	-1000000	-1000000	-1000000
131,00	-3,167	15,24	-3,933	-1000000	-1000000	-1000000
131,50	-3,186	15,25	-3,954	-1000000	-1000000	-1000000
132,00	-3,204	15,26	-3,975	-1000000	-1000000	-1000000
132,50	-3,222	15,27	-3,996	-1000000	-1000000	-1000000
133,00	-3,239	15,27	-4,016	-1000000	-1000000	-1000000
133,50	-3,256	15,28	-4,037	-1000000	-1000000	-1000000
134,00	-3,275	15,29	-4,058	-1000000	-1000000	-1000000
134,50	-3,292	15,30	-4,078	-1000000	-1000000	-1000000
135,00	-3,311	15,31	-4,099	-1000000	-1000000	-1000000
135,50	-3,329	15,32	-4,120	-1000000	-1000000	-1000000
136,00	-3,347	15,32	-4,141	-1000000	-1000000	-1000000
136,50	-3,365	15,33	-4,162	-1000000	-1000000	-1000000
137,00	-3,384	15,34	-4,184	-1000000	-1000000	-1000000
137,50	-3,402	15,35	-4,205	-1000000	-1000000	-1000000
138,00	-3,420	15,36	-4,225	-1000000	-1000000	-1000000
138,50	-3,438	15,36	-4,246	-1000000	-1000000	-1000000
139,00	-3,456	15,37	-4,267	-1000000	-1000000	-1000000
139,50	-3,474	15,38	-4,288	-1000000	-1000000	-1000000
140,00	-3,492	15,39	-4,308	-1000000	-1000000	-1000000
140,50	-3,510	15,40	-4,329	-1000000	-1000000	-1000000
141,00	-3,528	15,41	-4,350	-1000000	-1000000	-1000000
141,50	-3,546	15,42	-4,371	-1000000	-1000000	-1000000
142,00	-3,564	15,42	-4,392	-1000000	-1000000	-1000000
142,50	-3,582	15,43	-4,413	-1000000	-1000000	-1000000
143,00	-3,601	15,44	-4,434	-1000000	-1000000	-1000000
143,50	-3,619	15,45	-4,455	-1000000	-1000000	-1000000
144,00	-3,637	15,46	-4,476	-1000000	-1000000	-1000000
144,50	-3,654	15,47	-4,497	-1000000	-1000000	-1000000
145,00	-3,673	15,47	-4,518	-1000000	-1000000	-1000000
145,50	-3,690	15,48	-4,538	-1000000	-1000000	-1000000
146,00	-3,709	15,49	-4,559	-1000000	-1000000	-1000000
146,50	-3,727	15,50	-4,580	-1000000	-1000000	-1000000
147,00	-3,745	15,51	-4,601	-1000000	-1000000	-1000000
147,50	-3,763	15,52	-4,622	-1000000	-1000000	-1000000
148,00	-3,781	15,52	-4,643	-1000000	-1000000	-1000000
148,50	-3,799	15,53	-4,664	-1000000	-1000000	-1000000
149,00	-3,817	15,54	-4,685	-1000000	-1000000	-1000000
149,50	-3,835	15,55	-4,705	-1000000	-1000000	-1000000
150,00	-3,853	15,56	-4,726	-1000000	-1000000	-1000000
150,50	-3,872	15,57	-4,747	-1000000	-1000000	-1000000
151,00	-3,889	15,57	-4,767	-1000000	-1000000	-1000000
151,50	-3,907	15,58	-4,788	-1000000	-1000000	-1000000
152,00	-3,924	15,59	-4,808	-1000000	-1000000	-1000000
152,50	-3,940	15,60	-4,826	-1000000	-1000000	-1000000
153,00	-3,952	15,61	-4,840	-1000000	-1000000	-1000000
153,50	-3,968	15,62	-4,858	-1000000	-1000000	-1000000
154,00	-3,986	15,62	-4,878	-1000000	-1000000	-1000000
154,50	-4,004	15,63	-4,899	-1000000	-1000000	-1000000
155,00	-4,022	15,64	-4,920	-1000000	-1000000	-1000000
155,50	-4,040	15,65	-4,940	-1000000	-1000000	-1000000
156,00	-4,058	15,66	-4,961	-1000000	-1000000	-1000000
156,50	-4,075	15,67	-4,981	-1000000	-1000000	-1000000
157,00	-4,093	15,67	-5,002	-1000000	-1000000	-1000000
157,50	-4,110	15,68	-5,022	-1000000	-1000000	-1000000
158,00	-4,129	15,69	-5,042	-1000000	-1000000	-1000000
158,50	-4,146	15,70	-5,063	-1000000	-1000000	-1000000
159,00	-4,164	15,71	-5,083	-1000000	-1000000	-1000000
159,50	-4,182	15,72	-5,104	-1000000	-1000000	-1000000
160,00	-4,201	15,72	-5,125	-1000000	-1000000	-1000000
160,50	-4,219	15,73	-5,146	-1000000	-1000000	-1000000
161,00	-4,236	15,74	-5,166	-1000000	-1000000	-1000000
161,50	-4,254	15,75	-5,187	-1000000	-1000000	-1000000
162,00	-4,272	15,76	-5,207	-1000000	-1000000	-1000000
162,50	-4,290	15,77	-5,227	-1000000	-1000000	-1000000
163,00	-4,308	15,77	-5,248	-1000000	-1000000	-1000000
163,50	-4,326	15,78	-5,268	-1000000	-1000000	-1000000
164,00	-4,344	15,79	-5,288	-1000000	-1000000	-1000000
164,50	-4,362	15,80	-5,309	-1000000	-1000000	-1000000
165,00	-4,380	15,81	-5,329	-1000000	-1000000	-1000000
165,50	-4,397	15,82	-5,349	-1000000	-1000000	-1000000
166,00	-4,415	15,82	-5,370	-1000000	-1000000	-1000000
166,50	-4,432	15,83	-5,390	-1000000	-1000000	-1000000
167,00	-4,450	15,84	-5,411	-1000000	-1000000	-1000000
167,50	-4,469	15,85	-5,432	-1000000	-1000000	-1000000
168,00	-4,487	15,86	-5,452	-1000000	-1000000	-1000000
168,50	-4,505	15,87	-5,473	-1000000	-1000000	-1000000
169,00	-4,523	15,87	-5,493	-1000000	-1000000	-1000000
169,50	-4,545	15,88	-5,513	-1000000	-1000000	-1000000
170,00	-4,564	15,89	-5,534	-1000000	-1000000	-1000000
170,50	-4,582	15,90	-5,555	-1000000	-1000000	-1000000
171,00	-4,601	15,91	-5,575	-1000000	-1000000	-1000000
171,50	-4,619	15,92	-5,596	-1000000	-1000000	-1000000
172,00	-4,637	15,92	-5,617	-1000000	-1000000	-1000000
172,50	-4,654	15,93	-5,637	-1000000	-1000000	-1000000
173,00	-4,674	15,94	-5,658	-1000000	-1000000	-1000000
173,50	-4,691	15,95	-5,679	-1000000	-1000000	-1000000
174,00	-4,709	15,96	-5,699	-1000000	-1000000	-1000000
174,50	-4,727	15,97	-5,719	-1000000	-1000000	-1000000
175,00	-4,745	15,97	-5,739	-1000000	-1000000	-1000000
175,50	-4,762	15,98	-5,759	-1000000	-1000000	-1000000
176,00	-4,781	15,99	-5,779	-1000000	-1000000	-1000000
176,50	-4,798	16,00	-5,799	-1000000	-1000000	-1000000
177,00	-4,814	16,01	-5,818	-1000000	-1000000	-1000000
177,50	-4,832	16,02	-5,836	-1000000	-1000000	-1000000
178,00	-4,848	16,02	-5,855	-1000000	-1000000	-1000000
178,50	-4,866	16,03	-5,875	-1000000	-1000000	-1000000
179,00	-4,883	16,04	-5,895	-1000000	-1000000	-1000000
179,50	-4,901	16,05	-5,915	-1000000	-1000000	-1000000
180,00	-4,919	16,06	-5,935	-1000000	-1000000	-1000000
180,50	-4,936	16,07	-5,956	-1000000	-1000000	-1000000
181,00	-4,954	16,07	-5,975	-1000000	-1000000	-1000000
181,50	-4,972	16,08	-5,995	-1000000	-1000000	-1000000
182,00	-4,990	16,09	-6,015	-1000000	-1000000	-1000000
182,50	-5,008	16,10	-6,036	-1000000	-1000000	-1000000
183,00	-5,026	16,11	-6,056	-1000000	-1000000	-1000000
183,50	-5,045	16,12	-6,077	-1000000	-1000000	-1000000
184,00	-5,062	16,12	-6,097	-1000000	-1000000	-1000000
184,50	-5,081	16,13	-6,117	-1000000	-1000000	-1000000
185,00	-5,098	16,14	-6,137	-1000000	-1000000	-1000000
185,50	-5,118	16,15	-6,158	-1000000	-1000000	-1000000
186,00	-5,135	16,16	-6,178	-1000000	-1000000	-1000000
186,50	-5,152	16,17	-6,197	-1000000	-1000000	-1000000
187,00	-5,170	16,17	-6,217	-1000000	-1000000	-1000000
187,50	-5,188	16,18	-6,238	-1000000	-1000000	-1000000
188,00	-5,206	16,19	-6,258	-1000000	-1000000	-1000000
188,50	-5,224	16,20	-6,278	-1000000	-1000000	-1000000
189,00	-5,243	16,21	-6,299	-1000000	-1000000	-1000000
189,50	-5,260	16,22	-6,319	-1000000	-1000000	-1000000
190,00	-5,278	16,22	-6,339	-1000000	-1000000	-1000000
190,50	-5,297	16,23	-6,360	-1000000	-1000000	-1000000
191,00	-5,315	16,24	-6,380	-1000000	-1000000	-1000000
191,50	-5,333	16,25	-6,401	-1000000	-1000000	-1000000
192,00	-5,352	16,26	-6,421	-1000000	-1000000	-1000000
192,50	-5,369	16,27	-6,441	-1000000	-1000000	-1000000
193,00	-5,387	16,27	-6,461	-1000000	-1000000	-1000000
193,50	-5,406	16,28	-6,482	-1000000	-1000000	-1000000
194,00	-5,424	16,29	-6,502	-1000000	-1000000	-1000000
194,50	-5,443	16,30	-6,523	-1000000	-1000000	-1000000
195,00	-5,462	16,31	-6,543	-1000000	-1000000	-1000000
195,50	-5,480	16,32	-6,564	-1000000	-1000000	-1000000
196,00	-5,499	16,32	-6,585	-1000000	-1000000	-1000000
196,50	-5,510	16,33	-6,588	-1000000	-1000000	-1000000
197,00	-5,279	16,34	-6,274	-1000000	-1000000	-1000000
197,50	-5,301	16,35	-6,298	-1000000	-1000000	-1000000
198,00	-5,321	16,36	-6,320	-1000000	-1000000	-1000000
198,50	-5,341	16,37	-6,343	-1000000	-1000000	-1000000
199,00	-5,362	16,37	-6,365	-1000000	-1000000	-1000000
199,50	-5,381	16,38	-6,386	-1000000	-1000000	-1000000
200,00	-5,399	16,39	-6,408	-1000000	-1000000	-1000000
200,50	-5,420	16,40	-6,430	-1000000	-1000000	-1000000
201,00	-5,439	16,41	-6,451	-1000000	-1000000	-1000000
201,50	-5,458	16,42	-6,473	-1000000	-1000000	-1000000
202,00	-5,478	16,42	-6,494	-1000000	-1000000	-1000000
202,50	-5,497	16,43	-6,515	-1000000	-1000000	-1000000
203,00	-5,516	16,44	-6,537	-1000000	-1000000	-1000000
203,50	-5,535	16,45	-6,558	-1000000	-1000000	-1000000
204,00	-5,554	16,46	-6,578	-1000000	-1000000	-1000000
204,50	-5,572	16,47	-6,599	-1000000	-1000000	-1000000
205,00	-5,590	16,47	-6,619	-1000000	-1000000	-1000000
205,50	-5,608	16,48	-6,639	-1000000	-1000000	-1000000
206,00	-5,627	16,49	-6,660	-1000000	-1000000	-1000000
206,50	-5,645	16,50	-6,680	-1000000	-1000000	-1000000
207,00	-5,665	16,51	-6,701	-1000000	-1000000	-1000000
207,50	-5,684	16,51	-6,721	-1000000	-1000000	-1000000
208,00	-5,702	16,52	-6,742	-1000000	-1000000	-1000000
208,50	-5,720	16,53	-6,762	-1000000	-1000000	-1000000
209,00	-5,739	16,54	-6,783	-1000000	-1000000	-1000000
209,50	-5,757	16,55	-6,803	-1000000	-1000000	-1000000
210,00	-5,776	16,56	-6,823	-1000000	-1000000	-1000000
210,50	-5,793	16,56	-6,844	-1000000	-1000000	-1000000
211,00	-5,812	16,57	-6,864	-1000000	-1000000	-1000000
211,50	-5,830	16,58	-6,884	-1000000	-1000000	-1000000
212,00	-5,849	16,59	-6,904	-1000000	-1000000	-1000000
212,50	-5,867	16,60	-6,924	-1000000	-1000000	-1000000
213,00	-5,885	16,61	-6,945	-1000000	-1000000	-1000000
213,50	-5,904	16,61	-6,965	-1000000	-1000000	-1000000
214,00	-5,922	16,62	-6,986	-1000000	-1000000	-1000000
214,50	-5,941	16,63	-7,006	-1000000	-1000000	-1000000
215,00	-5,959	16,64	-7,026	-1000000	-1000000	-1000000
215,50	-5,978	16,65	-7,047	-1000000	-1000000	-1000000
216,00	-5,996	16,66	-7,067	-1000000	-1000000	-1000000
216,50	-6,015	16,67	-7,087	-1000000	-1000000	-1000000
217,00	-6,033	16,67	-7,107	-1000000	-1000000	-1000000
217,50	-6,051	16,68	-7,127	-1000000	-1000000	-1000000
218,00	-6,070	16,69	-7,148	-1000000	-1000000	-1000000
218,50	-6,088	16,70	-7,168	-1000000	-1000000	-1000000
219,00	-6,106	16,71	-7,188	-1000000	-1000000	-1000000
219,50	-6,125	16,71	-7,208	-1000000	-1000000	-1000000
220,00	-6,143	16,72	-7,229	-1000000	-1000000	-1000000
220,50	-6,161	16,73	-7,249	-1000000	-1000000	-1000000
221,00	-6,178	16,74	-7,269	-1000000	-1000000	-1000000
221,50	-6,197	16,75	-7,289	-1000000	-1000000	-1000000
222,00	-6,216	16,76	-7,310	-1000000	-1000000	-1000000
222,50	-6,234	16,77	-7,330	-1000000	-1000000	-1000000
223,00	-6,252	16,77	-7,349	-1000000	-1000000	-1000000
223,50	-6,269	16,78	-7,369	-1000000	-1000000	-1000000
224,00	-6,287	16,79	-7,388	-1000000	-1000000	-1000000
224,50	-6,304	16,80	-7,407	-1000000	-1000000	-1000000
225,00	-6,322	16,81	-7,427	-1000000	-1000000	-1000000
225,50	-6,340	16,81	-7,447	-1000000	-1000000	-1000000
226,00	-6,359	16,82	-7,468	-1000000	-1000000	-1000000
226,50	-6,378	16,83	-7,488	-1000000	-1000000	-1000000
227,00	-6,396	16,84	-7,508	-1000000	-1000000	-1000000
227,50	-6,414	16,85	-7,529	-1000000	-1000000	-1000000
228,00	-6,434	16,86	-7,550	-1000000	-1000000	-1000000
228,50	-6,453	16,87	-7,570	-1000000	-1000000	-1000000
229,00	-6,472	16,87	-7,591	-1000000	-1000000	-1000000
229,50	-6,490	16,88	-7,612	-1000000	-1000000	-1000000
230,00	-6,509	16,89	-7,632	-1000000	-1000000	-1000000
230,50	-6,528	16,90	-7,653	-1000000	-1000000	-1000000
231,00	-6,548	16,91	-7,674	-1000000	-1000000	-1000000
231,50	-6,566	16,91	-7,695	-1000000	-1000000	-1000000
232,00	-6,586	16,92	-7,717	-1000000	-1000000	-1000000
232,50	-6,605	16,93	-7,738	-1000000	-1000000	-1000000
233,00	-6,625	16,94	-7,759	-1000000	-1000000	-1000000
233,50	-6,645	16,95	-7,780	-1000000	-1000000	-1000000
234,00	-6,663	16,96	-7,801	-1000000	-1000000	-1000000
234,50	-6,682	16,96	-7,822	-1000000	-1000000	-1000000
235,00	-6,701	16,97	-7,843	-1000000	-1000000	-1000000
235,50	-6,720	16,98	-7,864	-1000000	-1000000	-1000000
236,00	-6,739	16,99	-7,885	-1000000	-1000000	-1000000
236,50	-6,758	17,00	-7,906	-1000000	-1000000	-1000000
237,00	-6,778	17,01	-7,927	-1000000	-1000000	-1000000
237,50	-6,797	17,02	-7,949	-1000000	-1000000	-1000000
238,00	-6,817	17,02	-7,970	-1000000	-1000000	-1000000
238,50	-6,836	17,03	-7,991	-1000000	-1000000	-1000000
239,00	-6,855	17,04	-8,013	-1000000	-1000000	-1000000
239,50	-6,875	17,05	-8,034	-1000000	-1000000	-1000000
240,00	-6,894	17,06	-8,055	-1000000	-1000000	-1000000
240,50	-6,913	17,07	-8,076	-1000000	-1000000	-1000000
241,00	-6,933	17,07	-8,097	-1000000	-1000000	-1000000
241,50	-6,952	17,08	-8,118	-1000000	-1000000	-1000000
242,00	-6,970	17,09	-8,139	-1000000	-1000000	-1000000
242,50	-6,990	17,10	-8,161	-1000000	-1000000	-1000000
243,00	-7,010	17,11	-8,182	-1000000	-1000000	-1000000
243,50	-7,030	17,12	-8,204	-1000000	-1000000	-1000000
244,00	-7,050	17,12	-8,225	-1000000	-1000000	-1000000
244,50	-7,069	17,13	-8,246	-1000000	-1000000	-1000000
245,00	-7,088	17,14	-8,268	-1000000	-1000000	-1000000
245,50	-7,108	17,15	-8,289	-1000000	-1000000	-1000000
246,00	-7,128	17,16	-8,310	-1000000	-1000000	-1000000
246,50	-7,147	17,16	-8,331	-1000000	-1000000	-1000000
247,00	-7,166	17,17	-8,352	-1000000	-1000000	-1000000
247,50	-7,185	17,18	-8,374	-1000000	-1000000	-1000000
248,00	-7,205	17,19	-8,394	-1000000	-1000000	-1000000
248,50	-7,224	17,20	-8,416	-1000000	-1000000	-1000000
249,00	-7,243	17,21	-8,437	-1000000	-1000000	-1000000
249,50	-7,263	17,21	-8,459	-1000000	-1000000	-1000000
250,00	-7,283	17,22	-8,480	-1000000	-1000000	-1000000
250,50	-7,302	17,23	-8,502	-1000000	-1000000	-1000000
251,00	-7,322	17,24	-8,523	-1000000	-1000000	-1000000
251,50	-7,342	17,25	-8,544	-1000000	-1000000	-1000000
252,00	-7,362	17,26	-8,566	-1000000	-1000000	-1000000
252,50	-7,380	17,27	-8,587	-1000000	-1000000	-1000000
253,00	-7,399	17,27	-8,608	-1000000	-1000000	-1000000
253,50	-7,418	17,28	-8,629	-1000000	-1000000	-1000000
254,00	-7,438	17,29	-8,650	-1000000	-1000000	-1000000
254,50	-7,458	17,30	-8,672	-1000000	-1000000	-1000000
255,00	-7,477	17,31	-8,693	-1000000	-1000000	-1000000
255,50	-7,498	17,31	-8,714	-1000000	-1000000	-1000000
256,00	-7,517	17,32	-8,736	-1000000	-1000000	-1000000
256,50	-7,537	17,33	-8,757	-1000000	-1000000	-1000000
257,00	-7,556	17,34	-8,778	-1000000	-1000000	-1000000
257,50	-7,577	17,35	-8,800	-1000000	-1000000	-1000000
258,00	-7,595	17,36	-8,821	-1000000	-1000000	-1000000
258,50	-7,615	17,36	-8,843	-1000000	-1000000	-1000000
259,00	-7,634	17,37	-8,864	-1000000	-1000000	-1000000
259,50	-7,653	17,38	-8,885	-1000000	-1000000	-1000000
260,00	-7,673	17,39	-8,907	-1000000	-1000000	-1000000
260,50	-7,693	17,40	-8,929	-1000000	-1000000	-1000000
261,00	-7,712	17,41	-8,951	-1000000	-1000000	-1000000
261,50	-7,731	17,41	-8,973	-1000000	-1000000	-1000000
262,00	-7,751	17,42	-8,995	-1000000	-1000000	-1000000
262,50	-7,748	17,43	-9,050	-1000000	-1000000	-1000000
263,00	-7,729	17,44	-9,120	-1000000	-1000000	-1000000
263,50	-7,752	17,45	-9,144	-1000000	-1000000	-1000000
264,00	-7,772	17,46	-9,167	-1000000	-1000000	-1000000
264,50	-7,793	17,46	-9,190	-1000000	-1000000	-1000000
265,00	-7,813	17,47	-9,212	-1000000	-1000000	-1000000
265,50	-7,833	17,48	-9,234	-1000000	-1000000	-1000000
266,00	-7,853	17,49	-9,256	-1000000	-1000000	-1000000
266,50	-7,874	17,50	-9,278	-1000000	-1000000	-1000000
267,00	-7,894	17,51	-9,300	-1000000	-1000000	-1000000
267,50	-7,914	17,51	-9,322	-1000000	-1000000	-1000000
268,00	-7,934	17,52	-9,344	-1000000	-1000000	-1000000
268,50	-7,953	17,53	-9,366	-1000000	-1000000	-1000000
269,00	-7,974	17,54	-9,388	-1000000	-1000000	-1000000
269,50	-7,993	17,55	-9,410	-1000000	-1000000	-1000000
270,00	-8,013	17,56	-9,431	-1000000	-1000000	-1000000
270,50	-8,032	17,56	-9,453	-1000000	-1000000	-1000000
271,00	-8,052	17,57	-9,475	-1000000	-1000000	-1000000
271,50	-8,071	17,58	-9,496	-1000000	-1000000	-1000000
272,00	-8,091	17,59	-9,517	-1000000	-1000000	-1000000
272,50	-8,110	17,60	-9,539	-1000000	-1000000	-1000000
273,00	-8,130	17,61	-9,561	-1000000	-1000000	-1000000
273,50	-8,150	17,62	-9,583	-1000000	-1000000	-1000000
274,00	-8,170	17,62	-9,605	-1000000	-1000000	-1000000
274,50	-8,190	17,63	-9,627	-1000000	-1000000	-1000000
275,00	-8,209	17,64	-9,649	-1000000	-1000000	-1000000
275,50	-8,229	17,65	-9,670	-1000000	-1000000	-1000000
276,00	-8,247	17,66	-9,693	-1000000	-1000000	-1000000
276,50	-8,266	17,66	-9,715	-1000000	-1000000	-1000000
277,00	-8,285	17,67	-9,736	-1000000	-1000000	-1000000
277,50	-8,304	17,68	-9,758	-1000000	-1000000	-1000000
278,00	-8,323	17,69	-9,780	-1000000	-1000000	-1000000
278,50	-8,342	17,70	-9,801	-1000000	-1000000	-1000000
279,00	-8,362	17,71	-9,824	-1000000	-1000000	-1000000
279,50	-8,381	17,72	-9,847	-1000000	-1000000	-1000000
280,00	-8,400	17,72	-9,869	-1000000	-1000000	-1000000
280,50	-8,419	17,73	-9,892	-1000000	-1000000	-1000000
281,00	-8,439	17,74	-9,914	-1000000	-1000000	-1000000
281,50	-8,458	17,75	-9,936	-1000000	-1000000	-1000000
282,00	-8,477	17,76	-9,958	-1000000	-1000000	-1000000
282,50	-8,497	17,77	-9,980	-1000000	-1000000	-1000000
283,00	-8,516	17,77	-10,00	-1000000	-1000000	-1000000
283,50	-8,535	17,78	-10,02	-1000000	-1000000	-1000000
284,00	-8,554	17,79	-10,05	-1000000	-1000000	-1000000
284,50	-8,556	17,80	-10,07	-1000000	-1000000	-1000000
285,00	-8,578	17,81	-10,10	-1000000	-1000000	-1000000
285,50	-8,598	17,81	-10,12	-1000000	-1000000	-1000000
286,00	-8,618	17,82	-10,14	-1000000	-1000000	-1000000
286,50	-8,639	17,83	-10,16	-1000000	-1000000	-1000000
287,00	-8,659	17,84	-10,19	-1000000	-1000000	-1000000
287,50	-8,679	17,85	-10,21	-1000000	-1000000	-1000000
288,00	-8,698	17,86	-10,23	-1000000	-1000000	-1000000
288,50	-8,717	17,86	-10,25	-1000000	-1000000	-1000000
289,00	-8,738	17,87	-10,27	-1000000	-1000000	-1000000
289,50	-8,757	17,88	-10,30	-1000000	-1000000	-1000000
290,00	-8,775	17,89	-10,32	-1000000	-1000000	-1000000
290,50	-8,796	17,90	-10,34	-1000000	-1000000	-1000000
291,00	-8,815	17,91	-10,36	-1000000	-1000000	-1000000
291,50	-8,836	17,92	-10,38	-1000000	-1000000	-1000000
292,00	-8,856	17,92	-10,40	-1000000	-1000000	-1000000
292,50	-8,875	17,93	-10,43	-1000000	-1000000	-1000000
293,00	-8,895	17,94	-10,45	-1000000	-1000000	-1000000
293,50	-8,915	17,95	-10,47	-1000000	-1000000	-1000000
294,00	-8,934	17,96	-10,49	-1000000	-1000000	-1000000
294,50	-8,954	17,96	-10,51	-1000000	-1000000	-1000000
295,00	-8,974	17,97	-10,54	-1000000	-1000000	-1000000
295,50	-8,993	17,98	-10,56	-1000000	-1000000	-1000000
296,00	-9,013	17,99	-10,58	-1000000	-1000000	-1000000
296,50	-9,032	18,00	-10,60	-1000000	-1000000	-1000000
297,00	-9,053	18,01	-10,63	-1000000	-1000000	-1000000
297,50	-9,076	18,01	-10,65	-1000000	-1000000	-1000000
298,00	-9,096	18,02	-10,67	-1000000	-1000000	-1000000
298,50	-9,116	18,03	-10,70	-1000000	-1000000	-1000000
299,00	-9,136	18,04	-10,72	-1000000	-1000000	-1000000
299,50	-9,155	18,05	-10,75	-1000000	-1000000	-1000000
300,00	-9,175	18,06	-10,77	-1000000	-1000000	-1000000
300,50	-9,194	18,07	-10,79	-1000000	-1000000	-1000000
301,00	-9,215	18,07	-10,82	-1000000	-1000000	-1000000
301,50	-9,234	18,08	-10,85	-1000000	-1000000	-1000000
302,00	-9,253	18,09	-10,87	-1000000	-1000000	-1000000
302,50	-9,273	18,10	-10,90	-1000000	-1000000	-1000000
303,00	-9,293	18,11	-10,93	-1000000	-1000000	-1000000
303,50	-9,312	18,12	-10,95	-1000000	-1000000	-1000000
304,00	-9,331	18,12	-10,98	-1000000	-1000000	-1000000
304,50	-9,351	18,13	-11,00	-1000000	-1000000	-1000000
305,00	-9,371	18,14	-11,03	-1000000	-1000000	-1000000
305,50	-9,390	18,15	-11,06	-1000000	-1000000	-1000000
306,00	-9,410	18,16	-11,08	-1000000	-1000000	-1000000
306,50	-9,429	18,16	-11,11	-1000000	-1000000	-1000000
307,00	-9,448	18,17	-11,13	-1000000	-1000000	-1000000
307,50	-9,467	18,18	-11,15	-1000000	-1000000	-1000000
308,00	-9,487	18,19	-11,18	-1000000	-1000000	-1000000
308,50	-9,507	18,20	-11,20	-1000000	-1000000	-1000000
309,00	-9,526	18,21	-11,23	-1000000	-1000000	-1000000
309,50	-9,546	18,22	-11,25	-1000000	-1000000	-1000000
310,00	-9,560	18,22	-11,27	-1000000	-1000000	-1000000
310,50	-9,579	18,23	-11,30	-1000000	-1000000	-1000000
311,00	-9,599	18,24	-11,32	-1000000	-1000000	-1000000
311,50	-9,618	18,25	-11,35	-1000000	-1000000	-1000000
312,00	-9,638	18,26	-11,37	-1000000	-1000000	-1000000
312,50	-9,658	18,26	-11,40	-1000000	-1000000	-1000000
313,00	-9,677	18,27	-11,42	-1000000	-1000000	-1000000
313,50	-9,697	18,28	-11,44	-1000000	-1000000	-1000000
314,00	-9,717	18,29	-11,47	-1000000	-1000000	-1000000
314,50	-9,736	18,30	-11,49	-1000000	-1000000	-1000000
315,00	-9,757	18,31	-11,52	-1000000	-1000000	-1000000
315,50	-9,777	18,31	-11,54	-1000000	-1000000	-1000000
316,00	-9,796	18,32	-11,57	-1000000	-1000000	-1000000
316,50	-9,816	18,33	-11,59	-1000000	-1000000	-1000000
317,00	-9,836	18,34	-11,62	-1000000	-1000000	-1000000
317,50	-9,855	18,35	-11,64	-1000000	-1000000	-1000000
318,00	-9,874	18,36	-11,67	-1000000	-1000000	-1000000
318,50	-9,894	18,36	-11,69	-1000000	-1000000	-1000000
319,00	-9,914	18,37	-11,72	-1000000	-1000000	-1000000
319,50	-9,933	18,38	-11,74	-1000000	-1000000	-1000000
320,00	-9,932	18,39	-11,73	-1000000	-1000000	-1000000
320,50	-9,952	18,40	-11,75	-1000000	-1000000	-1000000
321,00	-9,971	18,41	-11,78	-1000000	-1000000	-1000000
321,50	-9,992	18,42	-11,80	-1000000	-1000000	-1000000
322,00	-10,01	18,42	-11,83	-1000000	-1000000	-1000000
322,50	-10,03	18,43	-11,85	-1000000	-1000000	-1000000
323,00	-10,04	18,44	-11,86	-1000000	-1000000	-1000000
323,50	-10,03	18,44	-11,86	-1000000	-1000000	-1000000
324,00	-10,03	18,44	-11,86	-1000000	-1000000	-1000000
324,50	-10,02	18,44	-11,86	-1000000	-1000000	-1000000
325,00	-10,02	18,44	-11,85	-1000000	-1000000	-1000000
325,50	-10,01	18,44	-11,85	-1000000	-1000000	-1000000
326,00	-10,01	18,44	-11,85	-1000000	-1000000	-1000000
326,50	-10,00	18,44	-11,85	-1000000	-1000000	-1000000
327,00	-9,999	18,44	-11,82	-1000000	-1000000	-1000000
327,50	-9,995	18,44	-11,79	-1000000	-1000000	-1000000
328,00	-9,991	18,44	-11,92	-1000000	-1000000	-1000000
328,50	-9,987	18,44	-12,93	-1000000	-1000000	-1000000
329,00	-9,983	18,44	-12,93	-1000000	-1000000	-1000000
329,50	-9,979	18,44	-13,10	-1000000	-1000000	-1000000
330,00	-9,974	18,44	3,146	-1000000	-1000000	-1000000
330,50	-9,971	18,44	3,083	-1000000	-1000000	-1000000
331,00	-9,966	18,44	2,897	-1000000	-1000000	-1000000
331,50	-9,963	18,44	2,178	-1000000	-1000000	-1000000
332,00	-9,958	18,44	2,423	-1000000	-1000000	-1000000
332,50	-9,955	18,44	1,898	-1000000	-1000000	-1000000
333,00	-9,952	18,44	1,914	-1000000	-1000000	-1000000
333,50	-9,949	18,44	1,914	-1000000	-1000000	-1000000
334,00	-9,946	18,44	1,915	-1000000	-1000000	-1000000
334,50	-9,942	18,44	1,915	-1000000	-1000000	-1000000
335,00	-9,938	18,44	1,915	-1000000	-1000000	-1000000
335,50	-9,935	18,44	1,916	-1000000	-1000000	-1000000
336,00	-9,933	18,44	1,916	-1000000	-1000000	-1000000
336,50	-9,930	18,44	1,917	-1000000	-1000000	-1000000
337,00	-9,926	18,44	1,917	-1000000	-1000000	-1000000
337,50	-9,922	18,44	1,918	-1000000	-1000000	-1000000
338,00	-9,922	18,44	1,919	-1000000	-1000000	-1000000
338,50	-9,918	18,44	1,919	-1000000	-1000000	-1000000
339,00	-9,940	18,44	1,920	-1000000	-1000000	-1000000
339,50	-9,964	18,45	1,921	-1000000	-1000000	-1000000
340,00	-9,988	18,46	1,921	-1000000	-1000000	-1000000
340,50	-10,01	18,47	1,921	-1000000	-1000000	-1000000
341,00	-10,03	18,48	1,922	-1000000	-1000000	-1000000
341,50	-10,06	18,49	1,922	-1000000	-1000000	-1000000
342,00	-10,08	18,49	1,923	-1000000	-1000000	-1000000
342,50	-10,10	18,50	1,923	-1000000	-1000000	-1000000
343,00	-10,12	18,51	1,923	-1000000	-1000000	-1000000
343,50	-10,14	18,52	1,924	-1000000	-1000000	-1000000
344,00	-10,17	18,53	1,924	-1000000	-1000000	-1000000
344,50	-10,19	18,54	1,925	-1000000	-1000000	-1000000
345,00	-10,21	18,54	1,925	-1000000	-1000000	-1000000
345,50	-10,23	18,55	1,926	-1000000	-1000000	-1000000
346,00	-10,25	18,56	1,926	-1000000	-1000000	-1000000
346,50	-10,27	18,57	1,926	-1000000	-1000000	-1000000
347,00	-10,29	18,58	1,927	-1000000	-1000000	-1000000
347,50	-10,32	18,59	1,928	-1000000	-1000000	-1000000
348,00	-10,33	18,59	1,927	-1000000	-1000000	-1000000
348,50	-10,36	18,60	1,928	-1000000	-1000000	-1000000
349,00	-10,38	18,61	1,928	-1000000	-1000000	-1000000
349,50	-10,40	18,62	1,929	-1000000	-1000000	-1000000
350,00	-10,42	18,63	1,929	-1000000	-1000000	-1000000
350,50	-10,44	18,64	1,929	-1000000	-1000000	-1000000
351,00	-10,46	18,64	1,929	-1000000	-1000000	-1000000
351,50	-10,48	18,65	1,929	-1000000	-1000000	-1000000
352,00	-10,50	18,66	1,929	-1000000	-1000000	-1000000
352,50	-10,52	18,67	1,929	-1000000	-1000000	-1000000
353,00	-10,54	18,68	1,929	-1000000	-1000000	-1000000
353,50	-10,56	18,69	1,929	-1000000	-1000000	-1000000
354,00	-10,58	18,69	1,929	-1000000	-1000000	-1000000
354,50	-10,60	18,70	1,930	-1000000	-1000000	-1000000
355,00	-10,63	18,71	1,930	-1000000	-1000000	-1000000
355,50	-10,65	18,72	1,930	-1000000	-1000000	-1000000
356,00	-10,67	18,73	1,930	-1000000	-1000000	-1000000
356,50	-10,69	18,74	1,930	-1000000	-1000000	-1000000
357,00	-10,71	18,75	1,930	-1000000	-1000000	-1000000
357,50	-10,73	18,76	1,930	-1000000	-1000000	-1000000
358,00	-10,75	18,77	1,930	-1000000	-1000000	-1000000
358,50	-10,77	18,77	1,931	-1000000	-1000000	-1000000
359,00	-10,79	18,78	1,931	-1000000	-1000000	-1000000
359,50	-10,81	18,79	1,930	-1000000	-1000000	-1000000
360,00	-10,83	18,80	1,930	-1000000	-1000000	-1000000
360,50	-10,85	18,81	1,930	-1000000	-1000000	-1000000
361,00	-10,87	18,81	1,930	-1000000	-1000000	-1000000
361,50	-10,89	18,82	1,930	-1000000	-1000000	-1000000
362,00	-10,91	18,83	1,930	-1000000	-1000000	-1000000
362,50	-10,93	18,84	1,930	-1000000	-1000000	-1000000
363,00	-10,95	18,85	1,931	-1000000	-1000000	-1000000
363,50	-10,97	18,86	1,930	-1000000	-1000000	-1000000
364,00	-10,99	18,86	1,930	-1000000	-1000000	-1000000
364,50	-11,01	18,87	1,930	-1000000	-1000000	-1000000
365,00	-11,03	18,88	1,930	-1000000	-1000000	-1000000
365,50	-11,05	18,89	1,930	-1000000	-1000000	-1000000
366,00	-11,07	18,90	1,930	-1000000	-1000000	-1000000
366,50	-11,09	18,91	1,930	-1000000	-1000000	-1000000
367,00	-11,11	18,91	1,930	-1000000	-1000000	-1000000
367,50	-11,13	18,92	1,929	-1000000	-1000000	-1000000
368,00	-11,15	18,93	1,913	-1000000	-1000000	-1000000
368,50	-11,17	18,94	1,916	-1000000	-1000000	-1000000
369,00	-11,19	18,95	1,919	-1000000	-1000000	-1000000
369,50	-11,21	18,96	1,920	-1000000	-1000000	-1000000
370,00	-11,23	18,96	1,921	-1000000	-1000000	-1000000
370,50	-11,25	18,97	1,922	-1000000	-1000000	-1000000
371,00	-11,27	18,98	1,922	-1000000	-1000000	-1000000
371,50	-11,29	18,99	1,923	-1000000	-1000000	-1000000
372,00	-11,31	19,00	1,923	-1000000	-1000000	-1000000
372,50	-11,33	19,01	1,923	-1000000	-1000000	-1000000
373,00	-11,35	19,01	1,924	-1000000	-1000000	-1000000
373,50	-11,37	19,02	1,924	-1000000	-1000000	-1000000
374,00	-11,39	19,03	1,924	-1000000	-1000000	-1000000
374,50	-11,41	19,04	1,924	-1000000	-1000000	-1000000
375,00	-11,43	19,05	1,922	-1000000	-1000000	-1000000
375,50	-11,45	19,06	1,922	-1000000	-1000000	-1000000
376,00	-11,47	19,06	1,923	-1000000	-1000000	-1000000
376,50	-11,49	19,07	1,923	-1000000	-1000000	-1000000
377,00	-11,51	19,08	1,923	-1000000	-1000000	-1000000
377,50	-11,53	19,09	1,923	-1000000	-1000000	-1000000
378,00	-11,55	19,10	1,923	-1000000	-1000000	-1000000
378,50	-11,57	19,11	1,924	-1000000	-1000000	-1000000
379,00	-11,59	19,12	1,924	-1000000	-1000000	-1000000
379,50	-11,61	19,12	1,924	-1000000	-1000000	-1000000
380,00	-11,63	19,13	1,924	-1000000	-1000000	-1000000
380,50	-11,65	19,14	1,924	-1000000	-1000000	-1000000
381,00	-11,67	19,15	1,924	-1000000	-1000000	-1000000
381,50	-11,69	19,16	1,924	-1000000	-1000000	-1000000
382,00	-11,71	19,17	1,924	-1000000	-1000000	-1000000
382,50	-11,73	19,17	1,924	-1000000	-1000000	-1000000
383,00	-11,75	19,18	1,924	-1000000	-1000000	-1000000
383,50	-11,77	19,19	1,925	-1000000	-1000000	-1000000
384,00	-11,79	19,20	1,925	-1000000	-1000000	-1000000
384,50	-11,81	19,21	1,925	-1000000	-1000000	-1000000
385,00	-11,83	19,21	1,925	-1000000	-1000000	-1000000
385,50	-11,85	19,22	1,925	-1000000	-1000000	-1000000
386,00	-11,87	19,23	1,925	-1000000	-1000000	-1000000
386,50	-11,89	19,24	1,925	-1000000	-1000000	-1000000
387,00	-11,90	19,25	1,925	-1000000	-1000000	-1000000
387,50	-11,92	19,26	1,925	-1000000	-1000000	-1000000
388,00	-11,94	19,26	1,925	-1000000	-1000000	-1000000
388,50	-11,96	19,27	1,925	-1000000	-1000000	-1000000
389,00	-11,98	19,28	1,925	-1000000	-1000000	-1000000
389,50	-12,00	19,29	1,925	-1000000	-1000000	-1000000
390,00	-12,02	19,30	1,925	-1000000	-1000000	-1000000
390,50	-12,04	19,31	1,925	-1000000	-1000000	-1000000
391,00	-12,06	19,32	1,925	-1000000	-1000000	-1000000
391,50	-12,08	19,32	1,925	-1000000	-1000000	-1000000
392,00	-12,10	19,33	1,925	-1000000	-1000000	-1000000
392,50	-12,12	19,34	1,926	-1000000	-1000000	-1000000
393,00	-12,14	19,35	1,926	-1000000	-1000000	-1000000
393,50	-12,16	19,36	1,926	-1000000	-1000000	-1000000
394,00	-12,18	19,36	1,926	-1000000	-1000000	-1000000
394,50	-12,20	19,37	1,926	-1000000	-1000000	-1000000
395,00	-12,22	19,38	1,926	-1000000	-1000000	-1000000
395,50	-12,24	19,39	1,926	-1000000	-1000000	-1000000
396,00	-12,26	19,40	1,926	-1000000	-1000000	-1000000
396,50	-12,28	19,41	1,926	-1000000	-1000000	-1000000
397,00	-12,30	19,42	1,927	-1000000	-1000000	-1000000
397,50	-12,32	19,42	1,927	-1000000	-1000000	-1000000
398,00	-12,34	19,43	1,927	-1000000	-1000000	-1000000
398,50	-12,36	19,44	1,927	-1000000	-1000000	-1000000
399,00	-12,38	19,45	1,927	-1000000	-1000000	-1000000
399,50	-12,40	19,46	1,927	-1000000	-1000000	-1000000
400,00	-12,41	19,46	1,927	-1000000	-1000000	-1000000
400,50	-12,41	19,47	1,927	-1000000	-1000000	-1000000
401,00	-12,16	19,48	1,919	-1000000	-1000000	-1000000
401,50	-12,18	19,49	1,921	-1000000	-1000000	-1000000
402,00	-12,21	19,50	1,922	-1000000	-1000000	-1000000
402,50	-12,23	19,51	1,922	-1000000	-1000000	-1000000
403,00	-12,25	19,51	1,923	-1000000	-1000000	-1000000
403,50	-12,28	19,52	1,923	-1000000	-1000000	-1000000
404,00	-12,30	19,53	1,923	-1000000	-1000000	-1000000
404,50	-12,32	19,54	1,923	-1000000	-1000000	-1000000
405,00	-12,34	19,55	1,924	-1000000	-1000000	-1000000
405,50	-12,36	19,55	1,924	-1000000	-1000000	-1000000
406,00	-12,38	19,56	1,924	-1000000	-1000000	-1000000
406,50	-12,41	19,57	1,924	-1000000	-1000000	-1000000
407,00	-12,42	19,58	1,924	-1000000	-1000000	-1000000
407,50	-12,44	19,59	1,924	-1000000	-1000000	-1000000
408,00	-12,47	19,60	1,924	-1000000	-1000000	-1000000
408,50	-12,49	19,61	1,924	-1000000	-1000000	-1000000
409,00	-12,51	19,61	1,924	-1000000	-1000000	-1000000
409,50	-12,53	19,62	1,924	-1000000	-1000000	-1000000
410,00	-12,55	19,63	1,925	-1000000	-1000000	-1000000
410,50	-12,57	19,64	1,925	-1000000	-1000000	-1000000
411,00	-12,59	19,65	1,925	-1000000	-1000000	-1000000
411,50	-12,61	19,66	1,925	-1000000	-1000000	-1000000
412,00	-12,63	19,66	1,925	-1000000	-1000000	-1000000
412,50	-12,65	19,67	1,925	-1000000	-1000000	-1000000
413,00	-12,67	19,68	1,925	-1000000	-1000000	-1000000
413,50	-12,69	19,69	1,925	-1000000	-1000000	-1000000
414,00	-12,71	19,70	1,925	-1000000	-1000000	-1000000
414,50	-12,73	19,71	1,925	-1000000	-1000000	-1000000
415,00	-12,75	19,71	1,925	-1000000	-1000000	-1000000
415,50	-12,77	19,72	1,925	-1000000	-1000000	-1000000
416,00	-12,79	19,73	1,925	-1000000	-1000000	-1000000
416,50	-12,81	19,74	1,925	-1000000	-1000000	-1000000
417,00	-12,83	19,75	1,925	-1000000	-1000000	-1000000
417,50	-12,85	19,76	1,925	-1000000	-1000000	-1000000
418,00	-12,86	19,76	1,925	-1000000	-1000000	-1000000
418,50	-12,88	19,77	1,925	-1000000	-1000000	-1000000
419,00	-12,90	19,78	1,926	-1000000	-1000000	-1000000
419,50	-12,92	19,79	1,926	-1000000	-1000000	-1000000
420,00	-12,94	19,80	1,926	-1000000	-1000000	-1000000
420,50	-12,96	19,81	1,926	-1000000	-1000000	-1000000
421,00	-12,98	19,81	1,926	-1000000	-1000000	-1000000
421,50	-13,00	19,82	1,926	-1000000	-1000000	-1000000
422,00	-13,02	19,83	1,926	-1000000	-1000000	-1000000
422,50	-13,04	19,84	1,926	-1000000	-1000000	-1000000
423,00	-13,06	19,85	1,926	-1000000	-1000000	-1000000
423,50	-13,08	19,85	1,926	-1000000	-1000000	-1000000
424,00	-13,10	19,86	1,926	-1000000	-1000000	-1000000
424,50	-13,11	19,87	1,926	-1000000	-1000000	-1000000
425,00	-13,13	19,88	1,926	-1000000	-1000000	-1000000
425,50	-13,15	19,89	1,926	-1000000	-1000000	-1000000
426,00	-4,133	19,90	1,940	-1000000	-1000000	-1000000
426,50	0,00146	19,91	1,906	-1000000	-1000000	-1000000
427,00	0,00090	19,91	1,909	-1000000	-1000000	-1000000
427,50	-0,00164	19,92	1,911	-1000000	-1000000	-1000000
428,00	-0,00138	19,93	1,911	-1000000	-1000000	-1000000
428,50	-0,00165	19,94	1,912	-1000000	-1000000	-1000000
429,00	-0,00400	19,95	1,912	-1000000	-1000000	-1000000
429,50	-0,00493	19,95	1,912	-1000000	-1000000	-1000000
430,00	-0,00539	19,96	1,913	-1000000	-1000000	-1000000
430,50	-0,00577	19,97	1,913	-1000000	-1000000	-1000000
431,00	-0,00616	19,98	1,912	-1000000	-1000000	-1000000
431,50	-0,00591	19,99	1,913	-1000000	-1000000	-1000000
432,00	-0,00651	20,00	1,913	-1000000	-1000000	-1000000
432,50	-0,00714	20,00	1,913	-1000000	-1000000	-1000000
433,00	-0,00825	20,01	1,913	-1000000	-1000000	-1000000
433,50	-0,00958	20,02	1,913	-1000000	-1000000	-1000000
434,00	-0,01006	20,03	1,914	-1000000	-1000000	-1000000
434,50	-0,00959	20,04	1,914	-1000000	-1000000	-1000000
435,00	-0,00970	20,05	1,914	-1000000	-1000000	-1000000
435,50	-0,00969	20,05	1,914	-1000000	-1000000	-1000000
436,00	-0,00939	20,06	1,914	-1000000	-1000000	-1000000
436,50	-0,00935	20,07	1,914	-1000000	-1000000	-1000000
437,00	-0,00950	20,08	1,914	-1000000	-1000000	-1000000
437,50	-0,00948	20,09	1,914	-1000000	-1000000	-1000000
438,00	-0,00986	20,10	1,914	-1000000	-1000000	-1000000
438,50	-0,00984	20,10	1,914	-1000000	-1000000	-1000000
439,00	-0,01023	20,11	1,914	-1000000	-1000000	-1000000
439,50	-0,00992	20,12	1,914	-1000000	-1000000	-1000000
440,00	-0,01118	20,13	1,914	-1000000	-1000000	-1000000
440,50	-0,00999	20,13	1,915	-1000000	-1000000	-1000000
441,00	-0,00969	20,13	1,915	-1000000	-1000000	-1000000
441,50	-0,00981	20,13	1,915	-1000000	-1000000	-1000000
442,00	-0,00943	20,13	1,915	-1000000	-1000000	-1000000
442,50	-0,00961	20,13	1,915	-1000000	-1000000	-1000000
443,00	-0,00951	20,13	1,915	-1000000	-1000000	-1000000