File: notebooks/experimental_tests/results/carbon_tensile_tests/F5.txt
Zeit  1 - Standardmessrate [s]	Kraft [kN]	Weg [mm]	DD1 [Prom]	PMX_1 CH 3-2 [micro_m/m]	PMX_1 CH 3-3 [mm]	PMX_1 CH 3-4 [mm]
0	-0,1961	-0,00024	0	-1000000	-1000000	-1000000
0,5	-0,1959	0	0	-1000000	-1000000	-1000000
1	-0,1958	0	0	-1000000	-1000000	-1000000
1,5	-0,1959	0	0	-1000000	-1000000	-1000000
2	-0,1958	0	0	-1000000	-1000000	-1000000
2,5	-0,1961	0	0	-1000000	-1000000	-1000000
3	-0,1957	0,00014	0	-1000000	-1000000	-1000000
3,5	-0,1961	-0,00024	0	-1000000	-1000000	-1000000
4	-0,196	0	0	-1000000	-1000000	-1000000
4,5	-0,1964	0	0	-1000000	-1000000	-1000000
5	-0,2007	0,00446	-0,0063	-1000000	-1000000	-1000000
5,5	-0,2149	0,01298	-0,02532	-1000000	-1000000	-1000000
6	-0,2239	0,02151	-0,03597	-1000000	-1000000	-1000000
6,5	-0,2289	0,02883	-0,04416	-1000000	-1000000	-1000000
7	-0,2328	0,03251	-0,04643	-1000000	-1000000	-1000000
7,5	-0,2328	0,03236	-0,04636	-1000000	-1000000	-1000000
8	-0,2332	0,03224	-0,04624	-1000000	-1000000	-1000000
8,5	-0,2328	0,03201	-0,04614	-1000000	-1000000	-1000000
9	-0,2316	0,03183	-0,04599	-1000000	-1000000	-1000000
9,5	-0,2309	-5,752	-0,046	-1000000	-1000000	-1000000
10	-0,2313	-6,758	-0,04569	-1000000	-1000000	-1000000
10,5	-0,2306	-6,757	-0,04563	-1000000	-1000000	-1000000
11	-0,2312	-6,757	-0,04565	-1000000	-1000000	-1000000
11,5	-0,2314	-6,757	-0,04563	-1000000	-1000000	-1000000
12	-0,2306	-6,757	-0,04558	-1000000	-1000000	-1000000
12,5	-0,2303	-6,757	-0,04551	-1000000	-1000000	-1000000
13	-0,2306	-6,757	-0,04552	-1000000	-1000000	-1000000
13,5	-0,2369	-6,745	-0,05241	-1000000	-1000000	-1000000
14	-0,2392	-6,737	-0,05555	-1000000	-1000000	-1000000
14,5	-0,2332	-6,728	-0,04664	-1000000	-1000000	-1000000
15	-0,2365	-6,72	-0,04993	-1000000	-1000000	-1000000
15,5	-0,2364	-6,712	-0,0503	-1000000	-1000000	-1000000
16	-0,236	-6,702	-0,04964	-1000000	-1000000	-1000000
16,5	-0,2402	-6,695	-0,05431	-1000000	-1000000	-1000000
17	-0,2399	-6,686	-0,05306	-1000000	-1000000	-1000000
17,5	-0,2433	-6,678	-0,05808	-1000000	-1000000	-1000000
18	-0,2455	-6,669	-0,06006	-1000000	-1000000	-1000000
18,5	-0,2467	-6,662	-0,06173	-1000000	-1000000	-1000000
19	-0,2476	-6,653	-0,06267	-1000000	-1000000	-1000000
19,5	-0,2463	-6,644	-0,06066	-1000000	-1000000	-1000000
20	-0,2496	-6,636	-0,06386	-1000000	-1000000	-1000000
20,5	-0,2501	-6,628	-0,06423	-1000000	-1000000	-1000000
21	-0,2537	-6,619	-0,06751	-1000000	-1000000	-1000000
21,5	-0,2527	-6,611	-0,06695	-1000000	-1000000	-1000000
22	-0,253	-6,603	-0,0675	-1000000	-1000000	-1000000
22,5	-0,256	-6,595	-0,07083	-1000000	-1000000	-1000000
23	-0,2579	-6,587	-0,07597	-1000000	-1000000	-1000000
23,5	-0,2616	-6,578	-0,079	-1000000	-1000000	-1000000
24	-0,2612	-6,57	-0,0802	-1000000	-1000000	-1000000
24,5	-0,2615	-6,562	-0,0808	-1000000	-1000000	-1000000
25	-0,2614	-6,553	-0,08083	-1000000	-1000000	-1000000
25,5	-0,2617	-6,545	-0,08099	-1000000	-1000000	-1000000
26	-0,262	-6,536	-0,08133	-1000000	-1000000	-1000000
26,5	-0,2638	-6,528	-0,08255	-1000000	-1000000	-1000000
27	-0,266	-6,52	-0,08367	-1000000	-1000000	-1000000
27,5	-0,264	-6,512	-0,08391	-1000000	-1000000	-1000000
28	-0,2658	-6,503	-0,08524	-1000000	-1000000	-1000000
28,5	-0,2658	-6,495	-0,08647	-1000000	-1000000	-1000000
29	-0,2661	-6,486	-0,08771	-1000000	-1000000	-1000000
29,5	-0,2688	-6,478	-0,08944	-1000000	-1000000	-1000000
30	-0,2699	-6,469	-0,09186	-1000000	-1000000	-1000000
30,5	-0,2739	-6,461	-0,09658	-1000000	-1000000	-1000000
31	-0,2763	-6,453	-0,09983	-1000000	-1000000	-1000000
31,5	-0,2802	-6,445	-0,1049	-1000000	-1000000	-1000000
32	-0,2855	-6,436	-0,1118	-1000000	-1000000	-1000000
32,5	-0,2897	-6,428	-0,1168	-1000000	-1000000	-1000000
33	-0,2921	-6,42	-0,1213	-1000000	-1000000	-1000000
33,5	-0,2978	-6,412	-0,128	-1000000	-1000000	-1000000
34	-0,3017	-6,403	-0,1329	-1000000	-1000000	-1000000
34,5	-0,3052	-6,395	-0,1379	-1000000	-1000000	-1000000
35	-0,3069	-6,387	-0,1423	-1000000	-1000000	-1000000
35,5	-0,3109	-6,378	-0,1476	-1000000	-1000000	-1000000
36	-0,3147	-6,37	-0,1527	-1000000	-1000000	-1000000
36,5	-0,3192	-6,362	-0,1575	-1000000	-1000000	-1000000
37	-0,3224	-6,354	-0,1613	-1000000	-1000000	-1000000
37,5	-0,3237	-6,345	-0,1648	-1000000	-1000000	-1000000
38	-0,3266	-6,336	-0,1681	-1000000	-1000000	-1000000
38,5	-0,3281	-6,328	-0,1706	-1000000	-1000000	-1000000
39	-0,3314	-6,319	-0,1729	-1000000	-1000000	-1000000
39,5	-0,3315	-6,311	-0,1736	-1000000	-1000000	-1000000
40	-0,3314	-6,302	-0,174	-1000000	-1000000	-1000000
40,5	-0,3317	-6,295	-0,175	-1000000	-1000000	-1000000
41	-0,3352	-6,286	-0,1785	-1000000	-1000000	-1000000
41,5	-0,3408	-6,278	-0,1851	-1000000	-1000000	-1000000
42	-0,3484	-6,27	-0,1955	-1000000	-1000000	-1000000
42,5	-0,3584	-6,261	-0,2081	-1000000	-1000000	-1000000
43	-0,3675	-6,253	-0,2205	-1000000	-1000000	-1000000
43,5	-0,3765	-6,245	-0,2319	-1000000	-1000000	-1000000
44	-0,3856	-6,237	-0,2438	-1000000	-1000000	-1000000
44,5	-0,3927	-6,229	-0,2529	-1000000	-1000000	-1000000
45	-0,3974	-6,22	-0,2596	-1000000	-1000000	-1000000
45,5	-0,4035	-6,212	-0,266	-1000000	-1000000	-1000000
46	-0,4118	-6,203	-0,2763	-1000000	-1000000	-1000000
46,5	-0,4208	-6,195	-0,2883	-1000000	-1000000	-1000000
47	-0,4309	-6,186	-0,3007	-1000000	-1000000	-1000000
47,5	-0,4398	-6,177	-0,312	-1000000	-1000000	-1000000
48	-0,4502	-6,169	-0,3237	-1000000	-1000000	-1000000
48,5	-0,4608	-6,161	-0,3373	-1000000	-1000000	-1000000
49	-0,4717	-6,153	-0,3509	-1000000	-1000000	-1000000
49,5	-0,4827	-6,145	-0,3652	-1000000	-1000000	-1000000
50	-0,4902	-6,136	-0,3711	-1000000	-1000000	-1000000
50,5	-0,4249	-6,128	-0,2905	-1000000	-1000000	-1000000
51	-0,4444	-6,119	-0,3134	-1000000	-1000000	-1000000
51,5	-0,4629	-6,111	-0,3357	-1000000	-1000000	-1000000
52	-0,4799	-6,103	-0,3566	-1000000	-1000000	-1000000
52,5	-0,4957	-6,095	-0,3765	-1000000	-1000000	-1000000
53	-0,5099	-6,086	-0,3951	-1000000	-1000000	-1000000
53,5	-0,5246	-6,078	-0,4137	-1000000	-1000000	-1000000
54	-0,5392	-6,069	-0,4324	-1000000	-1000000	-1000000
54,5	-0,5544	-6,062	-0,4509	-1000000	-1000000	-1000000
55	-0,5695	-6,053	-0,4694	-1000000	-1000000	-1000000
55,5	-0,5854	-6,045	-0,4883	-1000000	-1000000	-1000000
56	-0,5981	-6,037	-0,5058	-1000000	-1000000	-1000000
56,5	-0,6135	-6,029	-0,5247	-1000000	-1000000	-1000000
57	-0,63	-6,02	-0,542	-1000000	-1000000	-1000000
57,5	-0,6458	-6,012	-0,5607	-1000000	-1000000	-1000000
58	-0,6612	-6,003	-0,5804	-1000000	-1000000	-1000000
58,5	-0,6772	-5,995	-0,5999	-1000000	-1000000	-1000000
59	-0,6929	-5,987	-0,6193	-1000000	-1000000	-1000000
59,5	-0,7091	-5,978	-0,6386	-1000000	-1000000	-1000000
60	-0,7247	-5,97	-0,6579	-1000000	-1000000	-1000000
60,5	-0,7403	-5,961	-0,6765	-1000000	-1000000	-1000000
61	-0,7534	-5,953	-0,6912	-1000000	-1000000	-1000000
61,5	-0,7687	-5,945	-0,7093	-1000000	-1000000	-1000000
62	-0,783	-5,936	-0,7273	-1000000	-1000000	-1000000
62,5	-0,7983	-5,928	-0,7453	-1000000	-1000000	-1000000
63	-0,813	-5,92	-0,7633	-1000000	-1000000	-1000000
63,5	-0,8288	-5,912	-0,781	-1000000	-1000000	-1000000
64	-0,8392	-5,903	-0,7944	-1000000	-1000000	-1000000
64,5	-0,8378	-5,895	-0,791	-1000000	-1000000	-1000000
65	-0,8505	-5,887	-0,8071	-1000000	-1000000	-1000000
65,5	-0,8631	-5,878	-0,8226	-1000000	-1000000	-1000000
66	-0,8766	-5,87	-0,8377	-1000000	-1000000	-1000000
66,5	-0,889	-5,862	-0,8532	-1000000	-1000000	-1000000
67	-0,8999	-5,853	-0,8664	-1000000	-1000000	-1000000
67,5	-0,9111	-5,845	-0,8802	-1000000	-1000000	-1000000
68	-0,9245	-5,837	-0,8967	-1000000	-1000000	-1000000
68,5	-0,9384	-5,828	-0,9129	-1000000	-1000000	-1000000
69	-0,9514	-5,82	-0,9265	-1000000	-1000000	-1000000
69,5	-0,9641	-5,812	-0,9419	-1000000	-1000000	-1000000
70	-0,9756	-5,803	-0,9557	-1000000	-1000000	-1000000
70,5	-0,9892	-5,795	-0,9723	-1000000	-1000000	-1000000
71	-1,004	-5,786	-0,9899	-1000000	-1000000	-1000000
71,5	-1,018	-5,778	-1,006	-1000000	-1000000	-1000000
72	-1,032	-5,77	-1,023	-1000000	-1000000	-1000000
72,5	-1,044	-5,762	-1,039	-1000000	-1000000	-1000000
73	-1,058	-5,753	-1,051	-1000000	-1000000	-1000000
73,5	-1,072	-5,745	-1,069	-1000000	-1000000	-1000000
74	-1,086	-5,737	-1,087	-1000000	-1000000	-1000000
74,5	-1,102	-5,728	-1,105	-1000000	-1000000	-1000000
75	-1,114	-5,72	-1,12	-1000000	-1000000	-1000000
75,5	-1,125	-5,712	-1,133	-1000000	-1000000	-1000000
76	-1,142	-5,703	-1,152	-1000000	-1000000	-1000000
76,5	-1,157	-5,696	-1,17	-1000000	-1000000	-1000000
77	-1,173	-5,687	-1,188	-1000000	-1000000	-1000000
77,5	-1,188	-5,679	-1,206	-1000000	-1000000	-1000000
78	-1,204	-5,67	-1,224	-1000000	-1000000	-1000000
78,5	-1,218	-5,663	-1,243	-1000000	-1000000	-1000000
79	-1,235	-5,653	-1,261	-1000000	-1000000	-1000000
79,5	-1,248	-5,646	-1,278	-1000000	-1000000	-1000000
80	-1,263	-5,637	-1,295	-1000000	-1000000	-1000000
80,5	-1,278	-5,629	-1,313	-1000000	-1000000	-1000000
81	-1,294	-5,62	-1,333	-1000000	-1000000	-1000000
81,5	-1,31	-5,612	-1,352	-1000000	-1000000	-1000000
82	-1,326	-5,604	-1,368	-1000000	-1000000	-1000000
82,5	-1,342	-5,596	-1,386	-1000000	-1000000	-1000000
83	-1,358	-5,587	-1,405	-1000000	-1000000	-1000000
83,5	-1,373	-5,579	-1,424	-1000000	-1000000	-1000000
84	-1,389	-5,57	-1,443	-1000000	-1000000	-1000000
84,5	-1,403	-5,562	-1,46	-1000000	-1000000	-1000000
85	-1,417	-5,554	-1,477	-1000000	-1000000	-1000000
85,5	-1,434	-5,546	-1,495	-1000000	-1000000	-1000000
86	-1,45	-5,538	-1,514	-1000000	-1000000	-1000000
86,5	-1,466	-5,529	-1,534	-1000000	-1000000	-1000000
87	-1,482	-5,521	-1,553	-1000000	-1000000	-1000000
87,5	-1,499	-5,513	-1,572	-1000000	-1000000	-1000000
88	-1,516	-5,504	-1,592	-1000000	-1000000	-1000000
88,5	-1,529	-5,496	-1,606	-1000000	-1000000	-1000000
89	-1,542	-5,487	-1,621	-1000000	-1000000	-1000000
89,5	-1,558	-5,479	-1,64	-1000000	-1000000	-1000000
90	-1,574	-5,471	-1,66	-1000000	-1000000	-1000000
90,5	-1,591	-5,462	-1,68	-1000000	-1000000	-1000000
91	-1,609	-5,453	-1,7	-1000000	-1000000	-1000000
91,5	-1,625	-5,446	-1,719	-1000000	-1000000	-1000000
92	-1,642	-5,437	-1,738	-1000000	-1000000	-1000000
92,5	-1,658	-5,429	-1,758	-1000000	-1000000	-1000000
93	-1,675	-5,42	-1,777	-1000000	-1000000	-1000000
93,5	-1,691	-5,413	-1,797	-1000000	-1000000	-1000000
94	-1,708	-5,404	-1,817	-1000000	-1000000	-1000000
94,5	-1,725	-5,395	-1,836	-1000000	-1000000	-1000000
95	-1,741	-5,387	-1,855	-1000000	-1000000	-1000000
95,5	-1,756	-5,378	-1,873	-1000000	-1000000	-1000000
96	-1,772	-5,371	-1,892	-1000000	-1000000	-1000000
96,5	-1,789	-5,362	-1,912	-1000000	-1000000	-1000000
97	-1,806	-5,354	-1,931	-1000000	-1000000	-1000000
97,5	-1,823	-5,346	-1,951	-1000000	-1000000	-1000000
98	-1,84	-5,338	-1,971	-1000000	-1000000	-1000000
98,5	-1,858	-5,329	-1,989	-1000000	-1000000	-1000000
99	-1,874	-5,321	-2,008	-1000000	-1000000	-1000000
99,5	-1,892	-5,313	-2,028	-1000000	-1000000	-1000000
100	-1,909	-5,305	-2,048	-1000000	-1000000	-1000000
100,5	-1,927	-5,296	-2,068	-1000000	-1000000	-1000000
101	-1,943	-5,288	-2,088	-1000000	-1000000	-1000000
101,5	-1,96	-5,279	-2,108	-1000000	-1000000	-1000000
102	-1,977	-5,271	-2,127	-1000000	-1000000	-1000000
102,5	-1,993	-5,262	-2,147	-1000000	-1000000	-1000000
103	-2,009	-5,254	-2,166	-1000000	-1000000	-1000000
103,5	-2,025	-5,245	-2,185	-1000000	-1000000	-1000000
104	-2,042	-5,237	-2,205	-1000000	-1000000	-1000000
104,5	-2,06	-5,228	-2,225	-1000000	-1000000	-1000000
105	-2,077	-5,22	-2,245	-1000000	-1000000	-1000000
105,5	-2,094	-5,212	-2,265	-1000000	-1000000	-1000000
106	-2,112	-5,204	-2,286	-1000000	-1000000	-1000000
106,5	-2,129	-5,195	-2,306	-1000000	-1000000	-1000000
107	-2,147	-5,187	-2,326	-1000000	-1000000	-1000000
107,5	-2,165	-5,179	-2,346	-1000000	-1000000	-1000000
108	-2,182	-5,17	-2,366	-1000000	-1000000	-1000000
108,5	-2,199	-5,162	-2,386	-1000000	-1000000	-1000000
109	-2,217	-5,154	-2,406	-1000000	-1000000	-1000000
109,5	-2,232	-5,145	-2,425	-1000000	-1000000	-1000000
110	-2,249	-5,137	-2,443	-1000000	-1000000	-1000000
110,5	-2,264	-5,129	-2,463	-1000000	-1000000	-1000000
111	-2,282	-5,121	-2,482	-1000000	-1000000	-1000000
111,5	-2,3	-5,112	-2,503	-1000000	-1000000	-1000000
112	-2,318	-5,105	-2,523	-1000000	-1000000	-1000000
112,5	-2,336	-5,095	-2,544	-1000000	-1000000	-1000000
113	-2,354	-5,087	-2,564	-1000000	-1000000	-1000000
113,5	-2,371	-5,079	-2,584	-1000000	-1000000	-1000000
114	-2,39	-5,071	-2,605	-1000000	-1000000	-1000000
114,5	-2,407	-5,062	-2,625	-1000000	-1000000	-1000000
115	-2,425	-5,054	-2,645	-1000000	-1000000	-1000000
115,5	-2,443	-5,045	-2,666	-1000000	-1000000	-1000000
116	-2,461	-5,037	-2,686	-1000000	-1000000	-1000000
116,5	-2,479	-5,029	-2,707	-1000000	-1000000	-1000000
117	-2,497	-5,021	-2,727	-1000000	-1000000	-1000000
117,5	-2,515	-5,012	-2,747	-1000000	-1000000	-1000000
118	-2,533	-5,004	-2,768	-1000000	-1000000	-1000000
118,5	-2,551	-4,996	-2,788	-1000000	-1000000	-1000000
119	-2,568	-4,988	-2,808	-1000000	-1000000	-1000000
119,5	-2,587	-4,979	-2,829	-1000000	-1000000	-1000000
120	-2,605	-4,97	-2,85	-1000000	-1000000	-1000000
120,5	-2,623	-4,962	-2,87	-1000000	-1000000	-1000000
121	-2,641	-4,953	-2,89	-1000000	-1000000	-1000000
121,5	-2,659	-4,945	-2,911	-1000000	-1000000	-1000000
122	-2,676	-4,937	-2,931	-1000000	-1000000	-1000000
122,5	-2,695	-4,928	-2,951	-1000000	-1000000	-1000000
123	-2,712	-4,921	-2,972	-1000000	-1000000	-1000000
123,5	-2,731	-4,912	-2,992	-1000000	-1000000	-1000000
124	-2,749	-4,904	-3,013	-1000000	-1000000	-1000000
124,5	-2,768	-4,894	-3,034	-1000000	-1000000	-1000000
125	-2,786	-4,886	-3,055	-1000000	-1000000	-1000000
125,5	-2,805	-4,878	-3,076	-1000000	-1000000	-1000000
126	-2,823	-4,87	-3,097	-1000000	-1000000	-1000000
126,5	-2,841	-4,863	-3,117	-1000000	-1000000	-1000000
127	-2,86	-4,854	-3,138	-1000000	-1000000	-1000000
127,5	-2,879	-4,846	-3,159	-1000000	-1000000	-1000000
128	-2,897	-4,837	-3,18	-1000000	-1000000	-1000000
128,5	-2,916	-4,829	-3,201	-1000000	-1000000	-1000000
129	-2,935	-4,821	-3,222	-1000000	-1000000	-1000000
129,5	-2,953	-4,813	-3,243	-1000000	-1000000	-1000000
130	-2,972	-4,804	-3,265	-1000000	-1000000	-1000000
130,5	-2,991	-4,797	-3,286	-1000000	-1000000	-1000000
131	-3,01	-4,788	-3,308	-1000000	-1000000	-1000000
131,5	-3,03	-4,779	-3,329	-1000000	-1000000	-1000000
132	-3,048	-4,77	-3,35	-1000000	-1000000	-1000000
132,5	-3,067	-4,763	-3,371	-1000000	-1000000	-1000000
133	-3,085	-4,754	-3,393	-1000000	-1000000	-1000000
133,5	-3,104	-4,746	-3,414	-1000000	-1000000	-1000000
134	-3,124	-4,737	-3,436	-1000000	-1000000	-1000000
134,5	-3,143	-4,729	-3,457	-1000000	-1000000	-1000000
135	-3,161	-4,721	-3,479	-1000000	-1000000	-1000000
135,5	-3,18	-4,712	-3,501	-1000000	-1000000	-1000000
136	-3,2	-4,704	-3,523	-1000000	-1000000	-1000000
136,5	-3,22	-4,696	-3,544	-1000000	-1000000	-1000000
137	-3,239	-4,687	-3,567	-1000000	-1000000	-1000000
137,5	-3,258	-4,678	-3,588	-1000000	-1000000	-1000000
138	-3,277	-4,67	-3,609	-1000000	-1000000	-1000000
138,5	-3,295	-4,662	-3,631	-1000000	-1000000	-1000000
139	-3,315	-4,654	-3,652	-1000000	-1000000	-1000000
139,5	-3,334	-4,646	-3,673	-1000000	-1000000	-1000000
140	-3,354	-4,637	-3,695	-1000000	-1000000	-1000000
140,5	-3,373	-4,629	-3,717	-1000000	-1000000	-1000000
141	-3,393	-4,621	-3,739	-1000000	-1000000	-1000000
141,5	-3,412	-4,613	-3,762	-1000000	-1000000	-1000000
142	-3,432	-4,604	-3,784	-1000000	-1000000	-1000000
142,5	-3,452	-4,596	-3,806	-1000000	-1000000	-1000000
143	-3,471	-4,587	-3,828	-1000000	-1000000	-1000000
143,5	-3,491	-4,579	-3,85	-1000000	-1000000	-1000000
144	-3,511	-4,57	-3,872	-1000000	-1000000	-1000000
144,5	-3,53	-4,563	-3,894	-1000000	-1000000	-1000000
145	-3,549	-4,554	-3,915	-1000000	-1000000	-1000000
145,5	-3,569	-4,545	-3,938	-1000000	-1000000	-1000000
146	-3,589	-4,536	-3,96	-1000000	-1000000	-1000000
146,5	-3,609	-4,528	-3,982	-1000000	-1000000	-1000000
147	-3,629	-4,521	-4,004	-1000000	-1000000	-1000000
147,5	-3,648	-4,512	-4,027	-1000000	-1000000	-1000000
148	-3,668	-4,504	-4,049	-1000000	-1000000	-1000000
148,5	-3,688	-4,495	-4,071	-1000000	-1000000	-1000000
149	-3,708	-4,487	-4,093	-1000000	-1000000	-1000000
149,5	-3,728	-4,479	-4,115	-1000000	-1000000	-1000000
150	-3,748	-4,47	-4,138	-1000000	-1000000	-1000000
150,5	-3,768	-4,462	-4,159	-1000000	-1000000	-1000000
151	-3,786	-4,454	-4,181	-1000000	-1000000	-1000000
151,5	-3,807	-4,446	-4,204	-1000000	-1000000	-1000000
152	-3,826	-4,438	-4,226	-1000000	-1000000	-1000000
152,5	-3,846	-4,429	-4,248	-1000000	-1000000	-1000000
153	-3,845	-4,421	-4,261	-1000000	-1000000	-1000000
153,5	-3,843	-4,412	-4,282	-1000000	-1000000	-1000000
154	-3,865	-4,404	-4,306	-1000000	-1000000	-1000000
154,5	-3,887	-4,396	-4,33	-1000000	-1000000	-1000000
155	-3,908	-4,387	-4,352	-1000000	-1000000	-1000000
155,5	-3,928	-4,379	-4,374	-1000000	-1000000	-1000000
156	-3,948	-4,37	-4,397	-1000000	-1000000	-1000000
156,5	-3,968	-4,362	-4,419	-1000000	-1000000	-1000000
157	-3,988	-4,354	-4,441	-1000000	-1000000	-1000000
157,5	-4,008	-4,346	-4,463	-1000000	-1000000	-1000000
158	-4,028	-4,337	-4,486	-1000000	-1000000	-1000000
158,5	-4,049	-4,329	-4,508	-1000000	-1000000	-1000000
159	-4,069	-4,321	-4,531	-1000000	-1000000	-1000000
159,5	-4,089	-4,312	-4,553	-1000000	-1000000	-1000000
160	-4,11	-4,304	-4,576	-1000000	-1000000	-1000000
160,5	-4,13	-4,296	-4,599	-1000000	-1000000	-1000000
161	-4,151	-4,287	-4,621	-1000000	-1000000	-1000000
161,5	-4,171	-4,279	-4,644	-1000000	-1000000	-1000000
162	-4,191	-4,271	-4,666	-1000000	-1000000	-1000000
162,5	-4,212	-4,262	-4,689	-1000000	-1000000	-1000000
163	-4,233	-4,254	-4,712	-1000000	-1000000	-1000000
163,5	-4,252	-4,246	-4,734	-1000000	-1000000	-1000000
164	-4,274	-4,238	-4,757	-1000000	-1000000	-1000000
164,5	-4,293	-4,229	-4,78	-1000000	-1000000	-1000000
165	-4,314	-4,221	-4,802	-1000000	-1000000	-1000000
165,5	-4,336	-4,212	-4,825	-1000000	-1000000	-1000000
166	-4,356	-4,203	-4,848	-1000000	-1000000	-1000000
166,5	-4,377	-4,196	-4,871	-1000000	-1000000	-1000000
167	-4,398	-4,187	-4,893	-1000000	-1000000	-1000000
167,5	-4,419	-4,179	-4,916	-1000000	-1000000	-1000000
168	-4,439	-4,17	-4,939	-1000000	-1000000	-1000000
168,5	-4,46	-4,162	-4,961	-1000000	-1000000	-1000000
169	-4,481	-4,154	-4,984	-1000000	-1000000	-1000000
169,5	-4,501	-4,145	-5,007	-1000000	-1000000	-1000000
170	-4,521	-4,138	-5,029	-1000000	-1000000	-1000000
170,5	-4,546	-4,13	-5,051	-1000000	-1000000	-1000000
171	-4,566	-4,121	-5,073	-1000000	-1000000	-1000000
171,5	-4,586	-4,113	-5,096	-1000000	-1000000	-1000000
172	-4,607	-4,105	-5,118	-1000000	-1000000	-1000000
172,5	-4,628	-4,096	-5,141	-1000000	-1000000	-1000000
173	-4,649	-4,088	-5,165	-1000000	-1000000	-1000000
173,5	-4,671	-4,079	-5,188	-1000000	-1000000	-1000000
174	-4,692	-4,071	-5,212	-1000000	-1000000	-1000000
174,5	-4,714	-4,063	-5,235	-1000000	-1000000	-1000000
175	-4,735	-4,054	-5,258	-1000000	-1000000	-1000000
175,5	-4,757	-4,046	-5,282	-1000000	-1000000	-1000000
176	-4,779	-4,038	-5,306	-1000000	-1000000	-1000000
176,5	-4,801	-4,029	-5,33	-1000000	-1000000	-1000000
177	-4,824	-4,021	-5,354	-1000000	-1000000	-1000000
177,5	-4,845	-4,013	-5,379	-1000000	-1000000	-1000000
178	-4,868	-4,004	-5,403	-1000000	-1000000	-1000000
178,5	-4,89	-3,996	-5,427	-1000000	-1000000	-1000000
179	-4,912	-3,988	-5,452	-1000000	-1000000	-1000000
179,5	-4,935	-3,979	-5,476	-1000000	-1000000	-1000000
180	-4,957	-3,971	-5,5	-1000000	-1000000	-1000000
180,5	-4,979	-3,963	-5,524	-1000000	-1000000	-1000000
181	-5,001	-3,954	-5,548	-1000000	-1000000	-1000000
181,5	-5,025	-3,946	-5,572	-1000000	-1000000	-1000000
182	-5,047	-3,938	-5,597	-1000000	-1000000	-1000000
182,5	-5,069	-3,93	-5,621	-1000000	-1000000	-1000000
183	-5,092	-3,922	-5,646	-1000000	-1000000	-1000000
183,5	-5,116	-3,913	-5,671	-1000000	-1000000	-1000000
184	-5,138	-3,905	-5,695	-1000000	-1000000	-1000000
184,5	-5,161	-3,897	-5,72	-1000000	-1000000	-1000000
185	-5,184	-3,889	-5,744	-1000000	-1000000	-1000000
185,5	-5,206	-3,88	-5,769	-1000000	-1000000	-1000000
186	-5,229	-3,871	-5,793	-1000000	-1000000	-1000000
186,5	-5,251	-3,863	-5,818	-1000000	-1000000	-1000000
187	-5,273	-3,855	-5,842	-1000000	-1000000	-1000000
187,5	-5,296	-3,846	-5,867	-1000000	-1000000	-1000000
188	-5,319	-3,839	-5,891	-1000000	-1000000	-1000000
188,5	-5,342	-3,829	-5,916	-1000000	-1000000	-1000000
189	-5,365	-3,822	-5,941	-1000000	-1000000	-1000000
189,5	-5,388	-3,813	-5,966	-1000000	-1000000	-1000000
190	-5,412	-3,804	-5,991	-1000000	-1000000	-1000000
190,5	-5,435	-3,797	-6,015	-1000000	-1000000	-1000000
191	-5,458	-3,788	-6,04	-1000000	-1000000	-1000000
191,5	-5,48	-3,78	-6,065	-1000000	-1000000	-1000000
192	-5,503	-3,772	-6,089	-1000000	-1000000	-1000000
192,5	-5,526	-3,763	-6,113	-1000000	-1000000	-1000000
193	-5,548	-3,755	-6,138	-1000000	-1000000	-1000000
193,5	-5,572	-3,747	-6,163	-1000000	-1000000	-1000000
194	-5,594	-3,739	-6,187	-1000000	-1000000	-1000000
194,5	-5,618	-3,73	-6,212	-1000000	-1000000	-1000000
195	-5,64	-3,722	-6,237	-1000000	-1000000	-1000000
195,5	-5,664	-3,714	-6,262	-1000000	-1000000	-1000000
196	-5,687	-3,705	-6,287	-1000000	-1000000	-1000000
196,5	-5,711	-3,697	-6,312	-1000000	-1000000	-1000000
197	-5,734	-3,689	-6,337	-1000000	-1000000	-1000000
197,5	-5,757	-3,68	-6,362	-1000000	-1000000	-1000000
198	-5,78	-3,672	-6,387	-1000000	-1000000	-1000000
198,5	-5,803	-3,663	-6,411	-1000000	-1000000	-1000000
199	-5,826	-3,655	-6,436	-1000000	-1000000	-1000000
199,5	-5,849	-3,647	-6,46	-1000000	-1000000	-1000000
200	-5,872	-3,639	-6,485	-1000000	-1000000	-1000000
200,5	-5,896	-3,631	-6,51	-1000000	-1000000	-1000000
201	-5,919	-3,622	-6,536	-1000000	-1000000	-1000000
201,5	-5,943	-3,614	-6,561	-1000000	-1000000	-1000000
202	-5,966	-3,606	-6,585	-1000000	-1000000	-1000000
202,5	-5,99	-3,597	-6,61	-1000000	-1000000	-1000000
203	-6,014	-3,589	-6,635	-1000000	-1000000	-1000000
203,5	-6,037	-3,58	-6,66	-1000000	-1000000	-1000000
204	-6,059	-3,572	-6,685	-1000000	-1000000	-1000000
204,5	-6,083	-3,564	-6,709	-1000000	-1000000	-1000000
205	-6,106	-3,556	-6,734	-1000000	-1000000	-1000000
205,5	-6,13	-3,547	-6,759	-1000000	-1000000	-1000000
206	-6,153	-3,539	-6,784	-1000000	-1000000	-1000000
206,5	-6,175	-3,531	-6,808	-1000000	-1000000	-1000000
207	-6,199	-3,522	-6,833	-1000000	-1000000	-1000000
207,5	-6,222	-3,514	-6,859	-1000000	-1000000	-1000000
208	-6,245	-3,506	-6,883	-1000000	-1000000	-1000000
208,5	-6,269	-3,497	-6,908	-1000000	-1000000	-1000000
209	-6,292	-3,489	-6,933	-1000000	-1000000	-1000000
209,5	-6,315	-3,48	-6,957	-1000000	-1000000	-1000000
210	-6,339	-3,472	-6,982	-1000000	-1000000	-1000000
210,5	-6,362	-3,463	-7,007	-1000000	-1000000	-1000000
211	-6,385	-3,455	-7,031	-1000000	-1000000	-1000000
211,5	-6,408	-3,447	-7,056	-1000000	-1000000	-1000000
212	-6,432	-3,439	-7,081	-1000000	-1000000	-1000000
212,5	-6,455	-3,43	-7,106	-1000000	-1000000	-1000000
213	-6,479	-3,422	-7,131	-1000000	-1000000	-1000000
213,5	-6,503	-3,413	-7,156	-1000000	-1000000	-1000000
214	-6,525	-3,405	-7,18	-1000000	-1000000	-1000000
214,5	-6,549	-3,397	-7,205	-1000000	-1000000	-1000000
215	-6,573	-3,389	-7,229	-1000000	-1000000	-1000000
215,5	-6,595	-3,38	-7,254	-1000000	-1000000	-1000000
216	-6,619	-3,372	-7,279	-1000000	-1000000	-1000000
216,5	-6,642	-3,364	-7,303	-1000000	-1000000	-1000000
217	-6,665	-3,356	-7,328	-1000000	-1000000	-1000000
217,5	-6,689	-3,347	-7,352	-1000000	-1000000	-1000000
218	-6,711	-3,339	-7,377	-1000000	-1000000	-1000000
218,5	-6,734	-3,331	-7,401	-1000000	-1000000	-1000000
219	-6,758	-3,322	-7,426	-1000000	-1000000	-1000000
219,5	-6,781	-3,314	-7,451	-1000000	-1000000	-1000000
220	-6,805	-3,305	-7,476	-1000000	-1000000	-1000000
220,5	-6,829	-3,297	-7,5	-1000000	-1000000	-1000000
221	-6,852	-3,289	-7,525	-1000000	-1000000	-1000000
221,5	-6,875	-3,28	-7,55	-1000000	-1000000	-1000000
222	-6,899	-3,272	-7,574	-1000000	-1000000	-1000000
222,5	-6,922	-3,263	-7,598	-1000000	-1000000	-1000000
223	-6,945	-3,256	-7,623	-1000000	-1000000	-1000000
223,5	-6,968	-3,248	-7,648	-1000000	-1000000	-1000000
224	-6,992	-3,239	-7,672	-1000000	-1000000	-1000000
224,5	-7,015	-3,231	-7,697	-1000000	-1000000	-1000000
225	-7,039	-3,223	-7,721	-1000000	-1000000	-1000000
225,5	-7,063	-3,214	-7,746	-1000000	-1000000	-1000000
226	-7,086	-3,206	-7,77	-1000000	-1000000	-1000000
226,5	-7,109	-3,197	-7,795	-1000000	-1000000	-1000000
227	-7,132	-3,189	-7,819	-1000000	-1000000	-1000000
227,5	-7,147	-3,18	-7,834	-1000000	-1000000	-1000000
228	-7,167	-3,172	-7,856	-1000000	-1000000	-1000000
228,5	-7,189	-3,164	-7,879	-1000000	-1000000	-1000000
229	-7,212	-3,156	-7,902	-1000000	-1000000	-1000000
229,5	-7,235	-3,147	-7,926	-1000000	-1000000	-1000000
230	-7,257	-3,139	-7,949	-1000000	-1000000	-1000000
230,5	-7,28	-3,131	-7,973	-1000000	-1000000	-1000000
231	-7,303	-3,122	-7,997	-1000000	-1000000	-1000000
231,5	-7,326	-3,114	-8,021	-1000000	-1000000	-1000000
232	-7,35	-3,105	-8,046	-1000000	-1000000	-1000000
232,5	-7,372	-3,097	-8,07	-1000000	-1000000	-1000000
233	-7,395	-3,088	-8,094	-1000000	-1000000	-1000000
233,5	-7,418	-3,08	-8,118	-1000000	-1000000	-1000000
234	-7,442	-3,072	-8,142	-1000000	-1000000	-1000000
234,5	-7,465	-3,064	-8,166	-1000000	-1000000	-1000000
235	-7,487	-3,055	-8,19	-1000000	-1000000	-1000000
235,5	-7,511	-3,047	-8,214	-1000000	-1000000	-1000000
236	-7,534	-3,038	-8,238	-1000000	-1000000	-1000000
236,5	-7,557	-3,03	-8,262	-1000000	-1000000	-1000000
237	-7,581	-3,022	-8,286	-1000000	-1000000	-1000000
237,5	-7,604	-3,013	-8,311	-1000000	-1000000	-1000000
238	-7,627	-3,005	-8,335	-1000000	-1000000	-1000000
238,5	-7,651	-2,996	-8,36	-1000000	-1000000	-1000000
239	-7,672	-2,989	-8,381	-1000000	-1000000	-1000000
239,5	-7,695	-2,98	-8,405	-1000000	-1000000	-1000000
240	-7,717	-2,972	-8,428	-1000000	-1000000	-1000000
240,5	-7,74	-2,963	-8,452	-1000000	-1000000	-1000000
241	-7,763	-2,955	-8,476	-1000000	-1000000	-1000000
241,5	-7,786	-2,946	-8,5	-1000000	-1000000	-1000000
242	-7,809	-2,938	-8,523	-1000000	-1000000	-1000000
242,5	-7,832	-2,931	-8,547	-1000000	-1000000	-1000000
243	-7,855	-2,922	-8,572	-1000000	-1000000	-1000000
243,5	-7,878	-2,914	-8,596	-1000000	-1000000	-1000000
244	-7,902	-2,906	-8,62	-1000000	-1000000	-1000000
244,5	-7,925	-2,898	-8,644	-1000000	-1000000	-1000000
245	-7,949	-2,889	-8,668	-1000000	-1000000	-1000000
245,5	-7,971	-2,88	-8,691	-1000000	-1000000	-1000000
246	-7,994	-2,872	-8,715	-1000000	-1000000	-1000000
246,5	-8,017	-2,864	-8,739	-1000000	-1000000	-1000000
247	-8,04	-2,855	-8,762	-1000000	-1000000	-1000000
247,5	-8,063	-2,847	-8,786	-1000000	-1000000	-1000000
248	-8,085	-2,838	-8,81	-1000000	-1000000	-1000000
248,5	-8,108	-2,83	-8,833	-1000000	-1000000	-1000000
249	-8,132	-2,822	-8,858	-1000000	-1000000	-1000000
249,5	-8,155	-2,813	-8,881	-1000000	-1000000	-1000000
250	-8,177	-2,805	-8,905	-1000000	-1000000	-1000000
250,5	-8,201	-2,797	-8,928	-1000000	-1000000	-1000000
251	-8,224	-2,788	-8,952	-1000000	-1000000	-1000000
251,5	-8,245	-2,781	-8,975	-1000000	-1000000	-1000000
252	-8,268	-2,773	-8,999	-1000000	-1000000	-1000000
252,5	-8,291	-2,764	-9,022	-1000000	-1000000	-1000000
253	-8,314	-2,756	-9,046	-1000000	-1000000	-1000000
253,5	-8,337	-2,747	-9,069	-1000000	-1000000	-1000000
254	-8,359	-2,739	-9,093	-1000000	-1000000	-1000000
254,5	-8,383	-2,731	-9,116	-1000000	-1000000	-1000000
255	-8,406	-2,723	-9,14	-1000000	-1000000	-1000000
255,5	-8,424	-2,714	-9,158	-1000000	-1000000	-1000000
256	-8,446	-2,706	-9,181	-1000000	-1000000	-1000000
256,5	-8,467	-2,698	-9,203	-1000000	-1000000	-1000000
257	-8,489	-2,689	-9,225	-1000000	-1000000	-1000000
257,5	-8,511	-2,681	-9,248	-1000000	-1000000	-1000000
258	-8,533	-2,672	-9,27	-1000000	-1000000	-1000000
258,5	-8,555	-2,665	-9,292	-1000000	-1000000	-1000000
259	-8,577	-2,656	-9,315	-1000000	-1000000	-1000000
259,5	-8,598	-2,647	-9,337	-1000000	-1000000	-1000000
260	-8,62	-2,638	-9,36	-1000000	-1000000	-1000000
260,5	-8,642	-2,63	-9,382	-1000000	-1000000	-1000000
261	-8,664	-2,622	-9,404	-1000000	-1000000	-1000000
261,5	-8,685	-2,614	-9,426	-1000000	-1000000	-1000000
262	-8,707	-2,605	-9,449	-1000000	-1000000	-1000000
262,5	-8,729	-2,597	-9,47	-1000000	-1000000	-1000000
263	-8,74	-2,592	-9,481	-1000000	-1000000	-1000000
263,5	-8,734	-2,591	-9,474	-1000000	-1000000	-1000000
264	-8,727	-2,591	-9,468	-1000000	-1000000	-1000000
264,5	-8,722	-2,592	-9,462	-1000000	-1000000	-1000000
265	-8,716	-2,592	-9,457	-1000000	-1000000	-1000000
265,5	-8,711	-2,592	-9,452	-1000000	-1000000	-1000000
266	-8,707	-2,592	-9,427	-1000000	-1000000	-1000000
266,5	-8,703	-2,591	-9,424	-1000000	-1000000	-1000000
267	-8,698	-2,592	-9,25	-1000000	-1000000	-1000000
267,5	-8,694	-2,592	-8,669	-1000000	-1000000	-1000000
268	-8,689	-2,592	-8,589	-1000000	-1000000	-1000000
268,5	-8,686	-2,592	-8,583	-1000000	-1000000	-1000000
269	-8,682	-2,592	-8,388	-1000000	-1000000	-1000000
269,5	-8,679	-2,592	-8,351	-1000000	-1000000	-1000000
270	-8,674	-2,592	-8,277	-1000000	-1000000	-1000000
270,5	-8,67	-2,593	-8,191	-1000000	-1000000	-1000000
271	-8,667	-2,593	-8,2	-1000000	-1000000	-1000000
271,5	-8,663	-2,593	-8,22	-1000000	-1000000	-1000000
272	-8,658	-2,593	-8,125	-1000000	-1000000	-1000000
272,5	-8,654	-2,593	0,069	-1000000	-1000000	-1000000
273	-8,65	-2,593	-0,965	-1000000	-1000000	-1000000
273,5	-8,647	-2,592	-1,3872	-1000000	-1000000	-1000000
274	-8,644	-2,593	-0,2741	-1000000	-1000000	-1000000
274,5	-8,641	-2,592	-0,2965	-1000000	-1000000	-1000000
275	-8,638	-2,592	-0,4196	-1000000	-1000000	-1000000
275,5	-8,635	-2,592	-2,957	-1000000	-1000000	-1000000
276	-8,633	-2,592	-2,924	-1000000	-1000000	-1000000
276,5	-8,629	-2,593	-2,889	-1000000	-1000000	-1000000
277	-8,625	-2,593	-2,071	-1000000	-1000000	-1000000
277,5	-8,617	-2,593	-2,515	-1000000	-1000000	-1000000
278	-8,613	-2,593	-2,529	-1000000	-1000000	-1000000
278,5	-8,609	-2,593	-2,529	-1000000	-1000000	-1000000
279	-8,605	-2,593	-2,529	-1000000	-1000000	-1000000
279,5	-8,602	-2,592	-2,529	-1000000	-1000000	-1000000
280	-8,601	-2,592	-2,529	-1000000	-1000000	-1000000
280,5	-8,597	-2,592	-2,529	-1000000	-1000000	-1000000
281	-8,596	-2,592	-2,529	-1000000	-1000000	-1000000
281,5	-8,593	-2,592	-2,529	-1000000	-1000000	-1000000
282	-8,612	-2,586	-2,529	-1000000	-1000000	-1000000
282,5	-8,636	-2,578	-2,529	-1000000	-1000000	-1000000
283	-8,662	-2,569	-2,529	-1000000	-1000000	-1000000
283,5	-8,689	-2,561	-2,529	-1000000	-1000000	-1000000
284	-8,715	-2,553	-2,529	-1000000	-1000000	-1000000
284,5	-8,742	-2,544	-2,529	-1000000	-1000000	-1000000
285	-8,768	-2,536	-2,529	-1000000	-1000000	-1000000
285,5	-8,791	-2,528	-2,529	-1000000	-1000000	-1000000
286	-8,817	-2,52	-2,529	-1000000	-1000000	-1000000
286,5	-8,842	-2,511	-2,529	-1000000	-1000000	-1000000
287	-8,867	-2,503	-2,529	-1000000	-1000000	-1000000
287,5	-8,892	-2,494	-2,529	-1000000	-1000000	-1000000
288	-8,913	-2,486	-2,529	-1000000	-1000000	-1000000
288,5	-8,938	-2,478	-2,529	-1000000	-1000000	-1000000
289	-8,962	-2,469	-2,529	-1000000	-1000000	-1000000
289,5	-8,987	-2,461	-2,529	-1000000	-1000000	-1000000
290	-9,011	-2,453	-2,529	-1000000	-1000000	-1000000
290,5	-9,036	-2,444	-2,529	-1000000	-1000000	-1000000
291	-9,059	-2,436	-2,53	-1000000	-1000000	-1000000
291,5	-9,085	-2,428	-2,53	-1000000	-1000000	-1000000
292	-9,109	-2,419	-2,53	-1000000	-1000000	-1000000
292,5	-9,133	-2,411	-2,53	-1000000	-1000000	-1000000
293	-9,157	-2,402	-2,53	-1000000	-1000000	-1000000
293,5	-9,18	-2,394	-2,53	-1000000	-1000000	-1000000
294	-9,202	-2,385	-2,53	-1000000	-1000000	-1000000
294,5	-9,226	-2,377	-2,53	-1000000	-1000000	-1000000
295	-9,248	-2,368	-2,53	-1000000	-1000000	-1000000
295,5	-9,272	-2,361	-2,53	-1000000	-1000000	-1000000
296	-9,295	-2,352	-2,53	-1000000	-1000000	-1000000
296,5	-9,319	-2,344	-2,53	-1000000	-1000000	-1000000
297	-9,342	-2,336	-2,53	-1000000	-1000000	-1000000
297,5	-9,363	-2,327	-2,53	-1000000	-1000000	-1000000
298	-9,386	-2,319	-2,53	-1000000	-1000000	-1000000
298,5	-9,41	-2,311	-2,53	-1000000	-1000000	-1000000
299	-9,433	-2,303	-2,53	-1000000	-1000000	-1000000
299,5	-9,457	-2,294	-2,53	-1000000	-1000000	-1000000
300	-9,481	-2,286	-2,53	-1000000	-1000000	-1000000
300,5	-9,501	-2,277	-2,53	-1000000	-1000000	-1000000
301	-9,525	-2,269	-2,53	-1000000	-1000000	-1000000
301,5	-9,548	-2,261	-2,53	-1000000	-1000000	-1000000
302	-9,565	-2,252	-2,53	-1000000	-1000000	-1000000
302,5	-9,588	-2,244	-2,53	-1000000	-1000000	-1000000
303	-9,609	-2,235	-2,53	-1000000	-1000000	-1000000
303,5	-9,627	-2,227	-2,53	-1000000	-1000000	-1000000
304	-9,628	-2,218	-2,53	-1000000	-1000000	-1000000
304,5	-9,646	-2,21	-2,53	-1000000	-1000000	-1000000
305	-9,65	-2,202	-2,53	-1000000	-1000000	-1000000
305,5	-9,666	-2,194	-2,53	-1000000	-1000000	-1000000
306	-9,686	-2,185	-2,53	-1000000	-1000000	-1000000
306,5	-9,699	-2,177	-2,53	-1000000	-1000000	-1000000
307	-9,719	-2,169	-2,53	-1000000	-1000000	-1000000
307,5	-9,74	-2,16	-2,53	-1000000	-1000000	-1000000
308	-9,762	-2,152	-2,53	-1000000	-1000000	-1000000
308,5	-9,785	-2,143	-2,53	-1000000	-1000000	-1000000
309	-9,807	-2,135	-2,53	-1000000	-1000000	-1000000
309,5	-9,825	-2,127	-2,53	-1000000	-1000000	-1000000
310	-9,845	-2,119	-2,53	-1000000	-1000000	-1000000
310,5	-9,868	-2,111	-2,53	-1000000	-1000000	-1000000
311	-9,892	-2,103	-2,53	-1000000	-1000000	-1000000
311,5	-9,915	-2,094	-2,53	-1000000	-1000000	-1000000
312	-9,938	-2,086	-2,53	-1000000	-1000000	-1000000
312,5	-9,961	-2,077	-2,53	-1000000	-1000000	-1000000
313	-9,984	-2,069	-2,53	-1000000	-1000000	-1000000
313,5	-10,01	-2,061	-2,53	-1000000	-1000000	-1000000
314	-10,02	-2,053	-2,53	-1000000	-1000000	-1000000
314,5	-10,05	-2,044	-2,53	-1000000	-1000000	-1000000
315	-10,07	-2,036	-2,53	-1000000	-1000000	-1000000
315,5	-10,09	-2,027	-2,53	-1000000	-1000000	-1000000
316	-10,12	-2,019	-2,53	-1000000	-1000000	-1000000
316,5	-10,14	-2,011	-2,53	-1000000	-1000000	-1000000
317	-10,16	-2,003	-2,53	-1000000	-1000000	-1000000
317,5	-10,19	-1,994	-2,53	-1000000	-1000000	-1000000
318	-10,2	-1,986	-2,53	-1000000	-1000000	-1000000
318,5	-10,23	-1,977	-2,53	-1000000	-1000000	-1000000
319	-10,25	-1,97	-2,53	-1000000	-1000000	-1000000
319,5	-10,27	-1,961	-2,53	-1000000	-1000000	-1000000
320	-10,3	-1,953	-2,53	-1000000	-1000000	-1000000
320,5	-10,32	-1,944	-2,53	-1000000	-1000000	-1000000
321	-10,34	-1,936	-2,53	-1000000	-1000000	-1000000
321,5	-10,36	-1,928	-2,53	-1000000	-1000000	-1000000
322	-10,39	-1,919	-2,53	-1000000	-1000000	-1000000
322,5	-10,4	-1,911	-2,53	-1000000	-1000000	-1000000
323	-10,42	-1,903	-2,53	-1000000	-1000000	-1000000
323,5	-10,44	-1,894	-2,53	-1000000	-1000000	-1000000
324	-10,46	-1,886	-2,53	-1000000	-1000000	-1000000
324,5	-10,48	-1,877	-2,53	-1000000	-1000000	-1000000
325	-10,5	-1,869	-2,53	-1000000	-1000000	-1000000
325,5	-10,53	-1,861	-2,53	-1000000	-1000000	-1000000
326	-10,53	-1,853	-2,53	-1000000	-1000000	-1000000
326,5	-10,55	-1,843	-2,53	-1000000	-1000000	-1000000
327	-10,58	-1,835	-2,53	-1000000	-1000000	-1000000
327,5	-10,6	-1,827	-2,53	-1000000	-1000000	-1000000
328	-10,62	-1,819	-2,53	-1000000	-1000000	-1000000
328,5	-10,64	-1,811	-2,53	-1000000	-1000000	-1000000
329	-10,67	-1,803	-2,53	-1000000	-1000000	-1000000
329,5	-10,68	-1,794	-2,53	-1000000	-1000000	-1000000
330	-10,7	-1,786	-2,53	-1000000	-1000000	-1000000
330,5	-10,73	-1,778	-2,53	-1000000	-1000000	-1000000
331	-10,75	-1,769	-2,53	-1000000	-1000000	-1000000
331,5	-10,77	-1,761	-2,53	-1000000	-1000000	-1000000
332	-10,8	-1,753	-2,53	-1000000	-1000000	-1000000
332,5	-10,82	-1,745	-2,53	-1000000	-1000000	-1000000
333	-10,84	-1,737	-2,53	-1000000	-1000000	-1000000
333,5	-10,86	-1,728	-2,53	-1000000	-1000000	-1000000
334	-10,88	-1,72	-2,53	-1000000	-1000000	-1000000
334,5	-10,9	-1,711	-2,53	-1000000	-1000000	-1000000
335	-10,93	-1,703	-2,53	-1000000	-1000000	-1000000
335,5	-10,95	-1,694	-2,53	-1000000	-1000000	-1000000
336	-10,97	-1,686	-2,53	-1000000	-1000000	-1000000
336,5	-11	-1,677	-2,53	-1000000	-1000000	-1000000
337	-11,02	-1,669	-2,53	-1000000	-1000000	-1000000
337,5	-11,04	-1,661	-2,53	-1000000	-1000000	-1000000
338	-11,07	-1,653	-2,53	-1000000	-1000000	-1000000
338,5	-11,08	-1,644	-2,53	-1000000	-1000000	-1000000
339	-11,1	-1,636	-2,53	-1000000	-1000000	-1000000
339,5	-11,13	-1,628	-2,53	-1000000	-1000000	-1000000
340	-11,15	-1,619	-2,53	-1000000	-1000000	-1000000
340,5	-11,17	-1,612	-2,53	-1000000	-1000000	-1000000
341	-11,2	-1,603	-2,53	-1000000	-1000000	-1000000
341,5	-11,22	-1,595	-2,53	-1000000	-1000000	-1000000
342	-11,24	-1,587	-2,53	-1000000	-1000000	-1000000
342,5	-11,26	-1,578	-2,53	-1000000	-1000000	-1000000
343	-11,29	-1,569	-2,53	-1000000	-1000000	-1000000
343,5	-11,3	-1,561	-2,53	-1000000	-1000000	-1000000
344	-11,33	-1,552	-2,53	-1000000	-1000000	-1000000
344,5	-11,35	-1,545	-2,53	-1000000	-1000000	-1000000
345	-11,37	-1,536	-2,53	-1000000	-1000000	-1000000
345,5	-11,39	-1,528	-2,53	-1000000	-1000000	-1000000
346	-11,42	-1,519	-2,53	-1000000	-1000000	-1000000
346,5	-11,44	-1,511	-2,53	-1000000	-1000000	-1000000
347	-11,46	-1,503	-2,53	-1000000	-1000000	-1000000
347,5	-11,49	-1,494	-2,53	-1000000	-1000000	-1000000
348	-11,51	-1,485	-2,53	-1000000	-1000000	-1000000
348,5	-11,52	-1,477	-2,53	-1000000	-1000000	-1000000
349	-11,55	-1,469	-2,53	-1000000	-1000000	-1000000
349,5	-11,57	-1,461	-2,53	-1000000	-1000000	-1000000
350	-11,59	-1,453	-2,53	-1000000	-1000000	-1000000
350,5	-11,61	-1,444	-2,53	-1000000	-1000000	-1000000
351	-11,64	-1,436	-2,53	-1000000	-1000000	-1000000
351,5	-11,66	-1,428	-2,53	-1000000	-1000000	-1000000
352	-11,68	-1,419	-2,53	-1000000	-1000000	-1000000
352,5	-11,71	-1,407	-2,53	-1000000	-1000000	-1000000
353	-11,73	-1,399	-2,53	-1000000	-1000000	-1000000
353,5	-11,74	-1,39	-2,53	-1000000	-1000000	-1000000
354	-11,76	-1,382	-2,53	-1000000	-1000000	-1000000
354,5	-11,78	-1,374	-2,53	-1000000	-1000000	-1000000
355	-11,8	-1,365	-2,53	-1000000	-1000000	-1000000
355,5	-11,82	-1,357	-2,53	-1000000	-1000000	-1000000
356	-11,85	-1,348	-2,53	-1000000	-1000000	-1000000
356,5	-11,87	-1,341	-2,53	-1000000	-1000000	-1000000
357	-11,89	-1,332	-2,53	-1000000	-1000000	-1000000
357,5	-11,92	-1,324	-2,53	-1000000	-1000000	-1000000
358	-11,94	-1,315	-2,53	-1000000	-1000000	-1000000
358,5	-11,95	-1,307	-2,53	-1000000	-1000000	-1000000
359	-11,97	-1,299	-2,53	-1000000	-1000000	-1000000
359,5	-11,99	-1,29	-2,53	-1000000	-1000000	-1000000
360	-12,02	-1,282	-2,53	-1000000	-1000000	-1000000
360,5	-12,04	-1,274	-2,53	-1000000	-1000000	-1000000
361	-12,06	-1,266	-2,53	-1000000	-1000000	-1000000
361,5	-12,08	-1,257	-2,53	-1000000	-1000000	-1000000
362	-12,11	-1,249	-2,53	-1000000	-1000000	-1000000
362,5	-12,13	-1,241	-2,53	-1000000	-1000000	-1000000
363	-12,15	-1,233	-2,53	-1000000	-1000000	-1000000
363,5	-12,17	-1,224	-2,53	-1000000	-1000000	-1000000
364	-12,19	-1,216	-2,53	-1000000	-1000000	-1000000
364,5	-12,21	-1,207	-2,53	-1000000	-1000000	-1000000
365	-12,23	-1,199	-2,53	-1000000	-1000000	-1000000
365,5	-12,26	-1,19	-2,53	-1000000	-1000000	-1000000
366	-12,28	-1,182	-2,53	-1000000	-1000000	-1000000
366,5	-12,29	-1,174	-2,53	-1000000	-1000000	-1000000
367	-12,31	-1,165	-2,53	-1000000	-1000000	-1000000
367,5	-12,33	-1,157	-2,53	-1000000	-1000000	-1000000
368	-12,33	-1,148	-2,53	-1000000	-1000000	-1000000
368,5	-12,35	-1,14	-2,53	-1000000	-1000000	-1000000
369	-12,37	-1,132	-2,53	-1000000	-1000000	-1000000
369,5	-12,4	-1,124	-2,53	-1000000	-1000000	-1000000
370	-12,42	-1,115	-2,53	-1000000	-1000000	-1000000
370,5	-12,44	-1,107	-2,53	-1000000	-1000000	-1000000
371	-12,46	-1,098	-2,53	-1000000	-1000000	-1000000
371,5	-12,47	-1,09	-2,53	-1000000	-1000000	-1000000
372	-12,49	-1,082	-2,53	-1000000	-1000000	-1000000
372,5	-12,51	-1,074	-2,53	-1000000	-1000000	-1000000
373	-12,53	-1,066	-2,53	-1000000	-1000000	-1000000
373,5	-12,55	-1,057	-2,53	-1000000	-1000000	-1000000
374	-12,58	-1,049	-2,53	-1000000	-1000000	-1000000
374,5	-12,6	-1,04	-2,53	-1000000	-1000000	-1000000
375	-12,62	-1,032	-2,53	-1000000	-1000000	-1000000
375,5	-12,64	-1,024	-2,53	-1000000	-1000000	-1000000
376	-12,66	-1,015	-2,53	-1000000	-1000000	-1000000
376,5	-12,67	-1,006	-2,53	-1000000	-1000000	-1000000
377	-12,69	-0,9982	-2,53	-1000000	-1000000	-1000000
377,5	-12,71	-0,9894	-2,53	-1000000	-1000000	-1000000
378	-12,73	-0,9815	-2,53	-1000000	-1000000	-1000000
378,5	-12,75	-0,9727	-2,53	-1000000	-1000000	-1000000
379	-12,77	-0,9643	-2,53	-1000000	-1000000	-1000000
379,5	-12,79	-0,9563	-2,53	-1000000	-1000000	-1000000
380	-12,81	-0,9481	-2,53	-1000000	-1000000	-1000000
380,5	-12,83	-0,9397	-2,53	-1000000	-1000000	-1000000
381	-12,85	-0,9315	-2,53	-1000000	-1000000	-1000000
381,5	-12,87	-0,923	-2,53	-1000000	-1000000	-1000000
382	-12,87	-0,9146	-2,53	-1000000	-1000000	-1000000
382,5	-12,89	-0,9068	-2,53	-1000000	-1000000	-1000000
383	-12,91	-0,8982	-2,53	-1000000	-1000000	-1000000
383,5	-12,74	-0,8899	-2,531	-1000000	-1000000	-1000000
384	-0,01232	-0,8817	-2,455	-1000000	-1000000	-1000000
384,5	0,00109	-0,8733	-2,446	-1000000	-1000000	-1000000
385	-0,00036	-0,8646	-2,447	-1000000	-1000000	-1000000
385,5	-0,00147	-0,8566	-2,447	-1000000	-1000000	-1000000
386	-0,00137	-0,8479	-2,447	-1000000	-1000000	-1000000
386,5	-0,00144	-0,8394	-2,447	-1000000	-1000000	-1000000
387	-0,004	-0,8311	-2,447	-1000000	-1000000	-1000000
387,5	-0,00508	-0,8227	-2,447	-1000000	-1000000	-1000000
388	-0,00504	-0,8146	-2,447	-1000000	-1000000	-1000000
388,5	-0,00505	-0,8063	-2,447	-1000000	-1000000	-1000000
389	-0,00494	-0,7977	-2,447	-1000000	-1000000	-1000000
389,5	-0,00515	-0,7893	-2,447	-1000000	-1000000	-1000000
390	-0,00488	-0,781	-2,447	-1000000	-1000000	-1000000
390,5	-0,0054	-0,7726	-2,447	-1000000	-1000000	-1000000
391	-0,00556	-0,7641	-2,447	-1000000	-1000000	-1000000
391,5	-0,0062	-0,7559	-2,447	-1000000	-1000000	-1000000
392	-0,00597	-0,7476	-2,447	-1000000	-1000000	-1000000
392,5	-0,00684	-0,7399	-2,447	-1000000	-1000000	-1000000
393	-0,00768	-0,7313	-2,447	-1000000	-1000000	-1000000
393,5	-0,00639	-0,7231	-2,447	-1000000	-1000000	-1000000