File: notebooks/experimental_tests/results/carbon_tensile_tests/F6.txt
Zeit  1 - Standardmessrate [s]	Kraft [kN]	Weg [mm]	DD1 [Prom]	PMX_1 CH 3-2 [µm/m]	PMX_1 CH 3-3 [mm]	PMX_1 CH 3-4 [mm]
0	-0,2003	0,00040	-0,00280	-1000000	-1000000	-1000000
0,6000	-0,2001	0,00061	-0,00705	-1000000	-1000000	-1000000
1,200	-0,2003	0,00036	-0,01118	-1000000	-1000000	-1000000
1,800	-0,2007	0,00051	-0,01506	-1000000	-1000000	-1000000
2,400	-0,2005	0,00044	-0,01867	-1000000	-1000000	-1000000
3,000	-0,2002	0,00034	-0,02215	-1000000	-1000000	-1000000
3,600	-0,2008	0,00100	-0,02555	-1000000	-1000000	-1000000
4,200	-0,2005	0,00029	-0,02894	-1000000	-1000000	-1000000
4,800	-0,2005	0,00088	-0,03222	-1000000	-1000000	-1000000
5,400	-0,2079	0,01038	-0,04573	-1000000	-1000000	-1000000
6,000	-0,2197	0,02037	-0,06230	-1000000	-1000000	-1000000
6,600	-0,2233	0,03098	-0,06995	-1000000	-1000000	-1000000
7,200	-0,2295	0,04061	-0,07995	-1000000	-1000000	-1000000
7,800	-0,2357	0,05058	-0,08631	-1000000	-1000000	-1000000
8,400	-0,2377	0,06008	-0,08899	-1000000	-1000000	-1000000
9,000	-0,2408	0,07078	-0,09370	-1000000	-1000000	-1000000
9,600	-0,2410	0,08083	-0,09527	-1000000	-1000000	-1000000
10,20	-0,2364	0,09050	-0,09052	-1000000	-1000000	-1000000
10,80	-0,2417	0,1005	-0,09901	-1000000	-1000000	-1000000
11,40	-0,2449	0,1106	-0,1037	-1000000	-1000000	-1000000
12,00	-0,2456	0,1208	-0,1076	-1000000	-1000000	-1000000
12,60	-0,2398	0,1304	-0,1017	-1000000	-1000000	-1000000
13,20	-0,2445	0,1408	-0,1092	-1000000	-1000000	-1000000
13,80	-0,2456	0,1510	-0,1143	-1000000	-1000000	-1000000
14,40	-0,2453	0,1612	-0,1168	-1000000	-1000000	-1000000
15,00	-0,2450	0,1707	-0,1199	-1000000	-1000000	-1000000
15,60	-0,2481	0,1810	-0,1250	-1000000	-1000000	-1000000
16,20	-0,2498	0,1909	-0,1313	-1000000	-1000000	-1000000
16,80	-0,2461	0,2010	-0,1300	-1000000	-1000000	-1000000
17,40	-0,2509	0,2108	-0,1403	-1000000	-1000000	-1000000
18,00	-0,2491	0,2207	-0,1416	-1000000	-1000000	-1000000
18,60	-0,2522	0,2306	-0,1480	-1000000	-1000000	-1000000
19,20	-0,2532	0,2401	-0,1547	-1000000	-1000000	-1000000
19,80	-0,2527	0,2501	-0,1570	-1000000	-1000000	-1000000
20,40	-0,2578	0,2605	-0,1667	-1000000	-1000000	-1000000
21,00	-0,2541	0,2711	-0,1647	-1000000	-1000000	-1000000
21,60	-0,2572	0,2809	-0,1720	-1000000	-1000000	-1000000
22,20	-0,2554	0,2906	-0,1715	-1000000	-1000000	-1000000
22,80	-0,2585	0,3008	-0,1790	-1000000	-1000000	-1000000
23,40	-0,2599	0,3112	-0,1825	-1000000	-1000000	-1000000
24,00	-0,2613	0,3206	-0,1869	-1000000	-1000000	-1000000
24,60	-0,2614	0,3306	-0,1901	-1000000	-1000000	-1000000
25,20	-0,2649	0,3405	-0,1943	-1000000	-1000000	-1000000
25,80	-0,2649	0,3509	-0,1964	-1000000	-1000000	-1000000
26,40	-0,2653	0,3610	-0,1990	-1000000	-1000000	-1000000
27,00	-0,2650	0,3709	-0,2011	-1000000	-1000000	-1000000
27,60	-0,2667	0,3802	-0,2038	-1000000	-1000000	-1000000
28,20	-0,2685	0,3901	-0,2054	-1000000	-1000000	-1000000
28,80	-0,2690	0,4008	-0,2075	-1000000	-1000000	-1000000
29,40	-0,2696	0,4104	-0,2110	-1000000	-1000000	-1000000
30,00	-0,2699	0,4208	-0,2149	-1000000	-1000000	-1000000
30,60	-0,2736	0,4299	-0,2186	-1000000	-1000000	-1000000
31,20	-0,2761	0,4406	-0,2213	-1000000	-1000000	-1000000
31,80	-0,2800	0,4505	-0,2279	-1000000	-1000000	-1000000
32,40	-0,2831	0,4608	-0,2333	-1000000	-1000000	-1000000
33,00	-0,2903	0,4707	-0,2414	-1000000	-1000000	-1000000
33,60	-0,2951	0,4809	-0,2497	-1000000	-1000000	-1000000
34,20	-0,3016	0,4905	-0,2577	-1000000	-1000000	-1000000
34,80	-0,3082	0,5003	-0,2671	-1000000	-1000000	-1000000
35,40	-0,3106	0,5108	-0,2687	-1000000	-1000000	-1000000
36,00	-0,3108	0,5204	-0,2693	-1000000	-1000000	-1000000
36,60	-0,3150	0,5308	-0,2752	-1000000	-1000000	-1000000
37,20	-0,3188	0,5402	-0,2780	-1000000	-1000000	-1000000
37,80	-0,3218	0,5505	-0,2813	-1000000	-1000000	-1000000
38,40	-0,3229	0,5606	-0,2837	-1000000	-1000000	-1000000
39,00	-0,3257	0,5713	-0,2851	-1000000	-1000000	-1000000
39,60	-0,3268	0,5808	-0,2860	-1000000	-1000000	-1000000
40,20	-0,3268	0,5910	-0,2869	-1000000	-1000000	-1000000
40,80	-0,3285	0,6012	-0,2877	-1000000	-1000000	-1000000
41,40	-0,3307	0,6109	-0,2886	-1000000	-1000000	-1000000
42,00	-0,3311	0,6211	-0,2893	-1000000	-1000000	-1000000
42,60	-0,3310	0,6307	-0,2896	-1000000	-1000000	-1000000
43,20	-0,3316	0,6411	-0,2903	-1000000	-1000000	-1000000
43,80	-0,3350	0,6500	-0,2935	-1000000	-1000000	-1000000
44,40	-0,3391	0,6612	-0,2973	-1000000	-1000000	-1000000
45,00	-0,3446	0,6704	-0,3040	-1000000	-1000000	-1000000
45,60	-0,3557	0,6810	-0,3170	-1000000	-1000000	-1000000
46,20	-0,3640	0,6905	-0,3280	-1000000	-1000000	-1000000
46,80	-0,3742	0,7007	-0,3387	-1000000	-1000000	-1000000
47,40	-0,3840	0,7107	-0,3519	-1000000	-1000000	-1000000
48,00	-0,3917	0,7204	-0,3592	-1000000	-1000000	-1000000
48,60	-0,3986	0,7310	-0,3659	-1000000	-1000000	-1000000
49,20	-0,4082	0,7404	-0,3768	-1000000	-1000000	-1000000
49,80	-0,4136	0,7508	-0,3827	-1000000	-1000000	-1000000
50,40	-0,4244	0,7606	-0,3929	-1000000	-1000000	-1000000
51,00	-0,4364	0,7710	-0,4052	-1000000	-1000000	-1000000
51,60	-0,4473	0,7806	-0,4170	-1000000	-1000000	-1000000
52,20	-0,4591	0,7909	-0,4295	-1000000	-1000000	-1000000
52,80	-0,4032	0,8005	-0,3561	-1000000	-1000000	-1000000
53,40	-0,4247	0,8106	-0,3828	-1000000	-1000000	-1000000
54,00	-0,4456	0,8204	-0,4075	-1000000	-1000000	-1000000
54,60	-0,4638	0,8300	-0,4285	-1000000	-1000000	-1000000
55,20	-0,4809	0,8406	-0,4479	-1000000	-1000000	-1000000
55,80	-0,4950	0,8500	-0,4646	-1000000	-1000000	-1000000
56,40	-0,5106	0,8605	-0,4817	-1000000	-1000000	-1000000
57,00	-0,5210	0,8698	-0,4929	-1000000	-1000000	-1000000
57,60	-0,5383	0,8805	-0,5104	-1000000	-1000000	-1000000
58,20	-0,5544	0,8903	-0,5237	-1000000	-1000000	-1000000
58,80	-0,5708	0,9004	-0,5399	-1000000	-1000000	-1000000
59,40	-0,5864	0,9100	-0,5544	-1000000	-1000000	-1000000
60,00	-0,6015	0,9204	-0,5691	-1000000	-1000000	-1000000
60,60	-0,6162	0,9299	-0,5828	-1000000	-1000000	-1000000
61,20	-0,6326	0,9405	-0,5958	-1000000	-1000000	-1000000
61,80	-0,6451	0,9506	-0,6065	-1000000	-1000000	-1000000
62,40	-0,6632	0,9601	-0,6222	-1000000	-1000000	-1000000
63,00	-0,6797	0,9709	-0,6367	-1000000	-1000000	-1000000
63,60	-0,6959	0,9799	-0,6509	-1000000	-1000000	-1000000
64,20	-0,7116	0,9908	-0,6653	-1000000	-1000000	-1000000
64,80	-0,7264	0,9997	-0,6779	-1000000	-1000000	-1000000
65,40	-0,7400	1,011	-0,6900	-1000000	-1000000	-1000000
66,00	-0,7556	1,020	-0,7023	-1000000	-1000000	-1000000
66,60	-0,7659	1,030	-0,7101	-1000000	-1000000	-1000000
67,20	-0,7807	1,040	-0,7229	-1000000	-1000000	-1000000
67,80	-0,7962	1,050	-0,7370	-1000000	-1000000	-1000000
68,40	-0,8110	1,060	-0,7504	-1000000	-1000000	-1000000
69,00	-0,8257	1,070	-0,7637	-1000000	-1000000	-1000000
69,60	-0,8431	1,080	-0,7797	-1000000	-1000000	-1000000
70,20	-0,8584	1,090	-0,7931	-1000000	-1000000	-1000000
70,80	-0,8564	1,100	-0,7857	-1000000	-1000000	-1000000
71,40	-0,8743	1,110	-0,8036	-1000000	-1000000	-1000000
72,00	-0,8898	1,120	-0,8195	-1000000	-1000000	-1000000
72,60	-0,9000	1,129	-0,8269	-1000000	-1000000	-1000000
73,20	-0,9171	1,140	-0,8432	-1000000	-1000000	-1000000
73,80	-0,9303	1,150	-0,8555	-1000000	-1000000	-1000000
74,40	-0,9440	1,160	-0,8690	-1000000	-1000000	-1000000
75,00	-0,9594	1,170	-0,8821	-1000000	-1000000	-1000000
75,60	-0,9637	1,180	-0,8847	-1000000	-1000000	-1000000
76,20	-0,9836	1,190	-0,9041	-1000000	-1000000	-1000000
76,80	-1,002	1,200	-0,9217	-1000000	-1000000	-1000000
77,40	-1,015	1,210	-0,9304	-1000000	-1000000	-1000000
78,00	-1,029	1,219	-0,9445	-1000000	-1000000	-1000000
78,60	-1,040	1,230	-0,9532	-1000000	-1000000	-1000000
79,20	-1,055	1,239	-0,9665	-1000000	-1000000	-1000000
79,80	-1,074	1,249	-0,9847	-1000000	-1000000	-1000000
80,40	-1,092	1,259	-1,000	-1000000	-1000000	-1000000
81,00	-1,105	1,269	-1,010	-1000000	-1000000	-1000000
81,60	-1,123	1,280	-1,024	-1000000	-1000000	-1000000
82,20	-1,131	1,290	-1,029	-1000000	-1000000	-1000000
82,80	-1,150	1,300	-1,045	-1000000	-1000000	-1000000
83,40	-1,170	1,310	-1,063	-1000000	-1000000	-1000000
84,00	-1,188	1,320	-1,078	-1000000	-1000000	-1000000
84,60	-1,202	1,330	-1,088	-1000000	-1000000	-1000000
85,20	-1,219	1,340	-1,102	-1000000	-1000000	-1000000
85,80	-1,237	1,349	-1,117	-1000000	-1000000	-1000000
86,40	-1,251	1,360	-1,125	-1000000	-1000000	-1000000
87,00	-1,263	1,369	-1,134	-1000000	-1000000	-1000000
87,60	-1,284	1,379	-1,151	-1000000	-1000000	-1000000
88,20	-1,305	1,389	-1,168	-1000000	-1000000	-1000000
88,80	-1,322	1,400	-1,182	-1000000	-1000000	-1000000
89,40	-1,338	1,409	-1,192	-1000000	-1000000	-1000000
90,00	-1,355	1,419	-1,204	-1000000	-1000000	-1000000
90,60	-1,375	1,430	-1,218	-1000000	-1000000	-1000000
91,20	-1,386	1,439	-1,224	-1000000	-1000000	-1000000
91,80	-1,406	1,450	-1,240	-1000000	-1000000	-1000000
92,40	-1,427	1,459	-1,255	-1000000	-1000000	-1000000
93,00	-1,447	1,470	-1,270	-1000000	-1000000	-1000000
93,60	-1,467	1,480	-1,282	-1000000	-1000000	-1000000
94,20	-1,484	1,490	-1,293	-1000000	-1000000	-1000000
94,80	-1,503	1,499	-1,305	-1000000	-1000000	-1000000
95,40	-1,522	1,510	-1,318	-1000000	-1000000	-1000000
96,00	-1,539	1,519	-1,327	-1000000	-1000000	-1000000
96,60	-1,552	1,530	-1,332	-1000000	-1000000	-1000000
97,20	-1,572	1,540	-1,345	-1000000	-1000000	-1000000
97,80	-1,594	1,549	-1,358	-1000000	-1000000	-1000000
98,40	-1,615	1,560	-1,371	-1000000	-1000000	-1000000
99,00	-1,636	1,570	-1,382	-1000000	-1000000	-1000000
99,60	-1,656	1,580	-1,393	-1000000	-1000000	-1000000
100,20	-1,673	1,589	-1,402	-1000000	-1000000	-1000000
100,80	-1,689	1,600	-1,409	-1000000	-1000000	-1000000
101,40	-1,707	1,609	-1,420	-1000000	-1000000	-1000000
102,00	-1,728	1,620	-1,433	-1000000	-1000000	-1000000
102,60	-1,749	1,630	-1,445	-1000000	-1000000	-1000000
103,20	-1,771	1,640	-1,457	-1000000	-1000000	-1000000
103,80	-1,792	1,650	-1,468	-1000000	-1000000	-1000000
104,40	-1,812	1,659	-1,478	-1000000	-1000000	-1000000
105,00	-1,832	1,670	-1,486	-1000000	-1000000	-1000000
105,60	-1,852	1,679	-1,496	-1000000	-1000000	-1000000
106,20	-1,872	1,690	-1,507	-1000000	-1000000	-1000000
106,80	-1,887	1,699	-1,514	-1000000	-1000000	-1000000
107,40	-1,905	1,710	-1,523	-1000000	-1000000	-1000000
108,00	-1,927	1,719	-1,535	-1000000	-1000000	-1000000
108,60	-1,948	1,730	-1,545	-1000000	-1000000	-1000000
109,20	-1,969	1,740	-1,555	-1000000	-1000000	-1000000
109,80	-1,991	1,749	-1,565	-1000000	-1000000	-1000000
110,40	-2,013	1,760	-1,573	-1000000	-1000000	-1000000
111,00	-2,034	1,770	-1,582	-1000000	-1000000	-1000000
111,60	-2,055	1,780	-1,591	-1000000	-1000000	-1000000
112,20	-2,076	1,790	-1,600	-1000000	-1000000	-1000000
112,80	-2,095	1,800	-1,610	-1000000	-1000000	-1000000
113,40	-2,108	1,809	-1,617	-1000000	-1000000	-1000000
114,00	-2,128	1,820	-1,627	-1000000	-1000000	-1000000
114,60	-2,148	1,830	-1,641	-1000000	-1000000	-1000000
115,20	-2,171	1,840	-1,655	-1000000	-1000000	-1000000
115,80	-2,192	1,849	-1,668	-1000000	-1000000	-1000000
116,40	-2,213	1,860	-1,681	-1000000	-1000000	-1000000
117,00	-2,235	1,870	-1,694	-1000000	-1000000	-1000000
117,60	-2,257	1,879	-1,707	-1000000	-1000000	-1000000
118,20	-2,278	1,889	-1,720	-1000000	-1000000	-1000000
118,80	-2,300	1,898	-1,733	-1000000	-1000000	-1000000
119,40	-2,321	1,909	-1,746	-1000000	-1000000	-1000000
120,00	-2,340	1,918	-1,757	-1000000	-1000000	-1000000
120,60	-2,356	1,929	-1,763	-1000000	-1000000	-1000000
121,20	-2,373	1,939	-1,769	-1000000	-1000000	-1000000
121,80	-2,394	1,949	-1,781	-1000000	-1000000	-1000000
122,40	-2,416	1,959	-1,793	-1000000	-1000000	-1000000
123,00	-2,437	1,969	-1,804	-1000000	-1000000	-1000000
123,60	-2,459	1,979	-1,816	-1000000	-1000000	-1000000
124,20	-2,480	1,989	-1,827	-1000000	-1000000	-1000000
124,80	-2,501	2,000	-1,837	-1000000	-1000000	-1000000
125,40	-2,523	2,008	-1,846	-1000000	-1000000	-1000000
126,00	-2,545	2,019	-1,857	-1000000	-1000000	-1000000
126,60	-2,567	2,029	-1,869	-1000000	-1000000	-1000000
127,20	-2,589	2,040	-1,879	-1000000	-1000000	-1000000
127,80	-2,611	2,049	-1,887	-1000000	-1000000	-1000000
128,40	-2,633	2,059	-1,889	-1000000	-1000000	-1000000
129,00	-2,654	2,069	-1,880	-1000000	-1000000	-1000000
129,60	-2,669	2,079	-1,865	-1000000	-1000000	-1000000
130,20	-2,690	2,090	-1,865	-1000000	-1000000	-1000000
130,80	-2,712	2,099	-1,870	-1000000	-1000000	-1000000
131,40	-2,735	2,109	-1,878	-1000000	-1000000	-1000000
132,00	-2,757	2,119	-1,887	-1000000	-1000000	-1000000
132,60	-2,781	2,129	-1,895	-1000000	-1000000	-1000000
133,20	-2,805	2,139	-1,904	-1000000	-1000000	-1000000
133,80	-2,828	2,149	-1,909	-1000000	-1000000	-1000000
134,40	-2,851	2,159	-1,902	-1000000	-1000000	-1000000
135,00	-2,875	2,169	-1,901	-1000000	-1000000	-1000000
135,60	-2,898	2,179	-1,899	-1000000	-1000000	-1000000
136,20	-2,921	2,189	-1,895	-1000000	-1000000	-1000000
136,80	-2,945	2,199	-1,892	-1000000	-1000000	-1000000
137,40	-2,968	2,209	-1,889	-1000000	-1000000	-1000000
138,00	-2,991	2,220	-1,885	-1000000	-1000000	-1000000
138,60	-3,011	2,230	-1,878	-1000000	-1000000	-1000000
139,20	-3,030	2,240	-1,872	-1000000	-1000000	-1000000
139,80	-3,052	2,249	-1,871	-1000000	-1000000	-1000000
140,40	-3,075	2,259	-1,872	-1000000	-1000000	-1000000
141,00	-3,099	2,270	-1,871	-1000000	-1000000	-1000000
141,60	-3,123	2,280	-1,871	-1000000	-1000000	-1000000
142,20	-3,147	2,289	-1,869	-1000000	-1000000	-1000000
142,80	-3,171	2,300	-1,865	-1000000	-1000000	-1000000
143,40	-3,195	2,309	-1,856	-1000000	-1000000	-1000000
144,00	-3,218	2,320	-1,845	-1000000	-1000000	-1000000
144,60	-3,242	2,329	-1,837	-1000000	-1000000	-1000000
145,20	-3,266	2,339	-1,831	-1000000	-1000000	-1000000
145,80	-3,290	2,349	-1,825	-1000000	-1000000	-1000000
146,40	-3,314	2,359	-1,821	-1000000	-1000000	-1000000
147,00	-3,339	2,369	-1,820	-1000000	-1000000	-1000000
147,60	-3,364	2,379	-1,819	-1000000	-1000000	-1000000
148,20	-3,387	2,389	-1,817	-1000000	-1000000	-1000000
148,80	-3,410	2,399	-1,816	-1000000	-1000000	-1000000
149,40	-3,431	2,410	-1,813	-1000000	-1000000	-1000000
150,00	-3,451	2,419	-1,812	-1000000	-1000000	-1000000
150,60	-3,475	2,429	-1,810	-1000000	-1000000	-1000000
151,20	-3,498	2,439	-1,807	-1000000	-1000000	-1000000
151,80	-3,522	2,449	-1,802	-1000000	-1000000	-1000000
152,40	-3,547	2,460	-1,798	-1000000	-1000000	-1000000
153,00	-3,571	2,469	-1,794	-1000000	-1000000	-1000000
153,60	-3,595	2,479	-1,790	-1000000	-1000000	-1000000
154,20	-3,620	2,489	-1,784	-1000000	-1000000	-1000000
154,80	-3,645	2,499	-1,778	-1000000	-1000000	-1000000
155,40	-3,671	2,509	-1,772	-1000000	-1000000	-1000000
156,00	-3,696	2,519	-1,769	-1000000	-1000000	-1000000
156,60	-3,722	2,529	-1,767	-1000000	-1000000	-1000000
157,20	-3,748	2,539	-1,763	-1000000	-1000000	-1000000
157,80	-3,774	2,549	-1,756	-1000000	-1000000	-1000000
158,40	-3,801	2,560	-1,747	-1000000	-1000000	-1000000
159,00	-3,825	2,569	-1,738	-1000000	-1000000	-1000000
159,60	-3,850	2,579	-1,727	-1000000	-1000000	-1000000
160,20	-3,858	2,590	-1,669	-1000000	-1000000	-1000000
160,80	-3,882	2,600	-1,682	-1000000	-1000000	-1000000
161,40	-3,905	2,610	-1,692	-1000000	-1000000	-1000000
162,00	-3,930	2,619	-1,697	-1000000	-1000000	-1000000
162,60	-3,955	2,630	-1,700	-1000000	-1000000	-1000000
163,20	-3,981	2,639	-1,699	-1000000	-1000000	-1000000
163,80	-4,006	2,650	-1,693	-1000000	-1000000	-1000000
164,40	-4,033	2,660	-1,686	-1000000	-1000000	-1000000
165,00	-4,059	2,670	-1,683	-1000000	-1000000	-1000000
165,60	-4,083	2,680	-1,682	-1000000	-1000000	-1000000
166,20	-4,094	2,689	-1,609	-1000000	-1000000	-1000000
166,80	-4,121	2,699	-1,620	-1000000	-1000000	-1000000
167,40	-4,147	2,709	-1,625	-1000000	-1000000	-1000000
168,00	-4,172	2,720	-1,627	-1000000	-1000000	-1000000
168,60	-4,198	2,729	-1,629	-1000000	-1000000	-1000000
169,20	-4,224	2,740	-1,632	-1000000	-1000000	-1000000
169,80	-4,250	2,749	-1,635	-1000000	-1000000	-1000000
170,40	-4,276	2,759	-1,639	-1000000	-1000000	-1000000
171,00	-4,303	2,769	-1,643	-1000000	-1000000	-1000000
171,60	-4,329	2,779	-1,647	-1000000	-1000000	-1000000
172,20	-4,355	2,789	-1,650	-1000000	-1000000	-1000000
172,80	-4,382	2,799	-1,654	-1000000	-1000000	-1000000
173,40	-4,408	2,809	-1,655	-1000000	-1000000	-1000000
174,00	-4,433	2,819	-1,657	-1000000	-1000000	-1000000
174,60	-4,458	2,829	-1,657	-1000000	-1000000	-1000000
175,20	-4,485	2,839	-1,660	-1000000	-1000000	-1000000
175,80	-4,510	2,849	-1,663	-1000000	-1000000	-1000000
176,40	-4,540	2,858	-1,664	-1000000	-1000000	-1000000
177,00	-4,566	2,869	-1,667	-1000000	-1000000	-1000000
177,60	-4,592	2,879	-1,670	-1000000	-1000000	-1000000
178,20	-4,618	2,889	-1,674	-1000000	-1000000	-1000000
178,80	-4,645	2,899	-1,679	-1000000	-1000000	-1000000
179,40	-4,671	2,909	-1,684	-1000000	-1000000	-1000000
180,00	-4,698	2,919	-1,690	-1000000	-1000000	-1000000
180,60	-4,725	2,928	-1,695	-1000000	-1000000	-1000000
181,20	-4,752	2,939	-1,701	-1000000	-1000000	-1000000
181,80	-4,780	2,948	-1,708	-1000000	-1000000	-1000000
182,40	-4,748	2,958	-1,604	-1000000	-1000000	-1000000
183,00	-4,768	2,968	-1,625	-1000000	-1000000	-1000000
183,60	-4,792	2,978	-1,649	-1000000	-1000000	-1000000
184,20	-4,817	2,988	-1,669	-1000000	-1000000	-1000000
184,80	-4,841	2,998	-1,685	-1000000	-1000000	-1000000
185,40	-4,866	3,009	-1,698	-1000000	-1000000	-1000000
186,00	-4,891	3,018	-1,711	-1000000	-1000000	-1000000
186,60	-4,909	3,029	-1,714	-1000000	-1000000	-1000000
187,20	-4,935	3,038	-1,731	-1000000	-1000000	-1000000
187,80	-4,960	3,049	-1,743	-1000000	-1000000	-1000000
188,40	-4,986	3,058	-1,753	-1000000	-1000000	-1000000
189,00	-5,011	3,069	-1,761	-1000000	-1000000	-1000000
189,60	-5,037	3,078	-1,768	-1000000	-1000000	-1000000
190,20	-5,063	3,088	-1,774	-1000000	-1000000	-1000000
190,80	-5,089	3,098	-1,779	-1000000	-1000000	-1000000
191,40	-5,115	3,108	-1,784	-1000000	-1000000	-1000000
192,00	-5,141	3,119	-1,788	-1000000	-1000000	-1000000
192,60	-5,168	3,128	-1,792	-1000000	-1000000	-1000000
193,20	-5,194	3,139	-1,796	-1000000	-1000000	-1000000
193,80	-5,220	3,148	-1,800	-1000000	-1000000	-1000000
194,40	-5,247	3,159	-1,803	-1000000	-1000000	-1000000
195,00	-5,272	3,168	-1,807	-1000000	-1000000	-1000000
195,60	-5,300	3,178	-1,811	-1000000	-1000000	-1000000
196,20	-5,325	3,188	-1,814	-1000000	-1000000	-1000000
196,80	-5,351	3,199	-1,816	-1000000	-1000000	-1000000
197,40	-5,376	3,208	-1,816	-1000000	-1000000	-1000000
198,00	-5,402	3,218	-1,814	-1000000	-1000000	-1000000
198,60	-5,427	3,228	-1,810	-1000000	-1000000	-1000000
199,20	-5,453	3,239	-1,807	-1000000	-1000000	-1000000
199,80	-5,480	3,248	-1,805	-1000000	-1000000	-1000000
200,40	-5,505	3,259	-1,802	-1000000	-1000000	-1000000
201,00	-5,532	3,268	-1,799	-1000000	-1000000	-1000000
201,60	-5,559	3,278	-1,796	-1000000	-1000000	-1000000
202,20	-5,584	3,289	-1,791	-1000000	-1000000	-1000000
202,80	-5,610	3,298	-1,785	-1000000	-1000000	-1000000
203,40	-5,637	3,309	-1,775	-1000000	-1000000	-1000000
204,00	-5,663	3,318	-1,765	-1000000	-1000000	-1000000
204,60	-5,689	3,328	-1,757	-1000000	-1000000	-1000000
205,20	-5,714	3,339	-1,752	-1000000	-1000000	-1000000
205,80	-5,741	3,349	-1,750	-1000000	-1000000	-1000000
206,40	-5,767	3,359	-1,748	-1000000	-1000000	-1000000
207,00	-5,793	3,369	-1,746	-1000000	-1000000	-1000000
207,60	-5,820	3,379	-1,744	-1000000	-1000000	-1000000
208,20	-5,846	3,389	-1,741	-1000000	-1000000	-1000000
208,80	-5,873	3,398	-1,736	-1000000	-1000000	-1000000
209,40	-5,899	3,408	-1,733	-1000000	-1000000	-1000000
210,00	-5,926	3,419	-1,731	-1000000	-1000000	-1000000
210,60	-5,952	3,428	-1,729	-1000000	-1000000	-1000000
211,20	-5,979	3,438	-1,726	-1000000	-1000000	-1000000
211,80	-6,006	3,448	-1,718	-1000000	-1000000	-1000000
212,40	-6,032	3,459	-1,708	-1000000	-1000000	-1000000
213,00	-6,059	3,469	-1,695	-1000000	-1000000	-1000000
213,60	-6,086	3,478	-1,681	-1000000	-1000000	-1000000
214,20	-6,113	3,489	-1,668	-1000000	-1000000	-1000000
214,80	-6,139	3,499	-1,656	-1000000	-1000000	-1000000
215,40	-6,165	3,509	-1,644	-1000000	-1000000	-1000000
216,00	-6,192	3,518	-1,635	-1000000	-1000000	-1000000
216,60	-6,219	3,529	-1,625	-1000000	-1000000	-1000000
217,20	-6,246	3,538	-1,611	-1000000	-1000000	-1000000
217,80	-6,273	3,549	-1,597	-1000000	-1000000	-1000000
218,40	-6,300	3,559	-1,590	-1000000	-1000000	-1000000
219,00	-6,328	3,569	-1,588	-1000000	-1000000	-1000000
219,60	-6,355	3,579	-1,587	-1000000	-1000000	-1000000
220,20	-6,380	3,589	-1,586	-1000000	-1000000	-1000000
220,80	-6,407	3,599	-1,587	-1000000	-1000000	-1000000
221,40	-6,433	3,609	-1,589	-1000000	-1000000	-1000000
222,00	-6,459	3,619	-1,592	-1000000	-1000000	-1000000
222,60	-6,487	3,629	-1,596	-1000000	-1000000	-1000000
223,20	-6,513	3,639	-1,599	-1000000	-1000000	-1000000
223,80	-6,540	3,648	-1,603	-1000000	-1000000	-1000000
224,40	-6,567	3,659	-1,608	-1000000	-1000000	-1000000
225,00	-6,593	3,669	-1,613	-1000000	-1000000	-1000000
225,60	-6,620	3,679	-1,618	-1000000	-1000000	-1000000
226,20	-6,645	3,688	-1,623	-1000000	-1000000	-1000000
226,80	-6,673	3,699	-1,627	-1000000	-1000000	-1000000
227,40	-6,694	3,709	-1,624	-1000000	-1000000	-1000000
228,00	-6,717	3,719	-1,627	-1000000	-1000000	-1000000
228,60	-6,742	3,729	-1,631	-1000000	-1000000	-1000000
229,20	-6,767	3,738	-1,633	-1000000	-1000000	-1000000
229,80	-6,793	3,749	-1,637	-1000000	-1000000	-1000000
230,40	-6,819	3,758	-1,640	-1000000	-1000000	-1000000
231,00	-6,844	3,769	-1,644	-1000000	-1000000	-1000000
231,60	-6,871	3,778	-1,648	-1000000	-1000000	-1000000
232,20	-6,896	3,788	-1,651	-1000000	-1000000	-1000000
232,80	-6,924	3,798	-1,653	-1000000	-1000000	-1000000
233,40	-6,950	3,809	-1,655	-1000000	-1000000	-1000000
234,00	-6,976	3,819	-1,657	-1000000	-1000000	-1000000
234,60	-7,003	3,829	-1,659	-1000000	-1000000	-1000000
235,20	-7,030	3,839	-1,663	-1000000	-1000000	-1000000
235,80	-7,057	3,848	-1,666	-1000000	-1000000	-1000000
236,40	-7,084	3,859	-1,667	-1000000	-1000000	-1000000
237,00	-7,110	3,869	-1,669	-1000000	-1000000	-1000000
237,60	-7,137	3,880	-1,670	-1000000	-1000000	-1000000
238,20	-7,163	3,889	-1,672	-1000000	-1000000	-1000000
238,80	-7,188	3,899	-1,674	-1000000	-1000000	-1000000
239,40	-7,215	3,908	-1,677	-1000000	-1000000	-1000000
240,00	-7,242	3,919	-1,681	-1000000	-1000000	-1000000
240,60	-7,268	3,929	-1,683	-1000000	-1000000	-1000000
241,20	-7,295	3,939	-1,682	-1000000	-1000000	-1000000
241,80	-7,314	3,949	-1,662	-1000000	-1000000	-1000000
242,40	-7,226	3,959	-1,534	-1000000	-1000000	-1000000
243,00	-7,250	3,969	-1,557	-1000000	-1000000	-1000000
243,60	-7,277	3,977	-1,577	-1000000	-1000000	-1000000
244,20	-7,305	3,988	-1,594	-1000000	-1000000	-1000000
244,80	-7,332	3,997	-1,606	-1000000	-1000000	-1000000
245,40	-7,357	4,009	-1,618	-1000000	-1000000	-1000000
246,00	-7,384	4,018	-1,628	-1000000	-1000000	-1000000
246,60	-7,411	4,028	-1,634	-1000000	-1000000	-1000000
247,20	-7,437	4,038	-1,635	-1000000	-1000000	-1000000
247,80	-7,463	4,048	-1,632	-1000000	-1000000	-1000000
248,40	-7,490	4,057	-1,626	-1000000	-1000000	-1000000
249,00	-7,517	4,067	-1,619	-1000000	-1000000	-1000000
249,60	-7,543	4,078	-1,613	-1000000	-1000000	-1000000
250,20	-7,571	4,088	-1,608	-1000000	-1000000	-1000000
250,80	-7,597	4,099	-1,602	-1000000	-1000000	-1000000
251,40	-7,625	4,108	-1,598	-1000000	-1000000	-1000000
252,00	-7,651	4,119	-1,593	-1000000	-1000000	-1000000
252,60	-7,679	4,128	-1,587	-1000000	-1000000	-1000000
253,20	-7,706	4,138	-1,577	-1000000	-1000000	-1000000
253,80	-7,733	4,148	-1,568	-1000000	-1000000	-1000000
254,40	-7,761	4,158	-1,559	-1000000	-1000000	-1000000
255,00	-7,789	4,168	-1,553	-1000000	-1000000	-1000000
255,60	-7,815	4,178	-1,548	-1000000	-1000000	-1000000
256,20	-7,843	4,188	-1,544	-1000000	-1000000	-1000000
256,80	-7,871	4,199	-1,541	-1000000	-1000000	-1000000
257,40	-7,897	4,209	-1,539	-1000000	-1000000	-1000000
258,00	-7,925	4,219	-1,535	-1000000	-1000000	-1000000
258,60	-7,951	4,229	-1,533	-1000000	-1000000	-1000000
259,20	-7,979	4,239	-1,529	-1000000	-1000000	-1000000
259,80	-8,006	4,249	-1,526	-1000000	-1000000	-1000000
260,40	-8,034	4,258	-1,524	-1000000	-1000000	-1000000
261,00	-8,061	4,268	-1,525	-1000000	-1000000	-1000000
261,60	-8,088	4,278	-1,526	-1000000	-1000000	-1000000
262,20	-8,115	4,288	-1,528	-1000000	-1000000	-1000000
262,80	-8,142	4,298	-1,531	-1000000	-1000000	-1000000
263,40	-8,169	4,308	-1,534	-1000000	-1000000	-1000000
264,00	-8,197	4,318	-1,537	-1000000	-1000000	-1000000
264,60	-8,224	4,328	-1,543	-1000000	-1000000	-1000000
265,20	-8,249	4,338	-1,546	-1000000	-1000000	-1000000
265,80	-8,276	4,348	-1,550	-1000000	-1000000	-1000000
266,40	-8,304	4,359	-1,553	-1000000	-1000000	-1000000
267,00	-8,332	4,369	-1,554	-1000000	-1000000	-1000000
267,60	-8,359	4,379	-1,555	-1000000	-1000000	-1000000
268,20	-8,387	4,389	-1,558	-1000000	-1000000	-1000000
268,80	-8,413	4,399	-1,559	-1000000	-1000000	-1000000
269,40	-8,440	4,409	-1,562	-1000000	-1000000	-1000000
270,00	-8,468	4,419	-1,565	-1000000	-1000000	-1000000
270,60	-8,495	4,429	-1,567	-1000000	-1000000	-1000000
271,20	-8,522	4,439	-1,569	-1000000	-1000000	-1000000
271,80	-8,550	4,449	-1,572	-1000000	-1000000	-1000000
272,40	-8,578	4,458	-1,576	-1000000	-1000000	-1000000
273,00	-8,605	4,469	-1,580	-1000000	-1000000	-1000000
273,60	-8,631	4,478	-1,585	-1000000	-1000000	-1000000
274,20	-8,658	4,488	-1,590	-1000000	-1000000	-1000000
274,80	-8,684	4,498	-1,595	-1000000	-1000000	-1000000
275,40	-8,712	4,509	-1,601	-1000000	-1000000	-1000000
276,00	-8,740	4,518	-1,606	-1000000	-1000000	-1000000
276,60	-8,766	4,529	-1,610	-1000000	-1000000	-1000000
277,20	-8,794	4,539	-1,614	-1000000	-1000000	-1000000
277,80	-8,822	4,548	-1,616	-1000000	-1000000	-1000000
278,40	-8,850	4,559	-1,619	-1000000	-1000000	-1000000
279,00	-8,878	4,569	-1,620	-1000000	-1000000	-1000000
279,60	-8,905	4,579	-1,621	-1000000	-1000000	-1000000
280,20	-8,933	4,588	-1,623	-1000000	-1000000	-1000000
280,80	-8,960	4,599	-1,625	-1000000	-1000000	-1000000
281,40	-8,988	4,608	-1,628	-1000000	-1000000	-1000000
282,00	-9,015	4,619	-1,630	-1000000	-1000000	-1000000
282,60	-9,042	4,628	-1,634	-1000000	-1000000	-1000000
283,20	-9,073	4,639	-1,637	-1000000	-1000000	-1000000
283,80	-9,101	4,648	-1,640	-1000000	-1000000	-1000000
284,40	-9,129	4,658	-1,643	-1000000	-1000000	-1000000
285,00	-9,156	4,669	-1,645	-1000000	-1000000	-1000000
285,60	-9,183	4,678	-1,646	-1000000	-1000000	-1000000
286,20	-9,210	4,689	-1,645	-1000000	-1000000	-1000000
286,80	-9,237	4,698	-1,641	-1000000	-1000000	-1000000
287,40	-9,265	4,709	-1,634	-1000000	-1000000	-1000000
288,00	-9,292	4,718	-1,625	-1000000	-1000000	-1000000
288,60	-9,319	4,729	-1,614	-1000000	-1000000	-1000000
289,20	-9,347	4,738	-1,603	-1000000	-1000000	-1000000
289,80	-9,373	4,748	-1,594	-1000000	-1000000	-1000000
290,40	-9,401	4,758	-1,586	-1000000	-1000000	-1000000
291,00	-9,428	4,768	-1,582	-1000000	-1000000	-1000000
291,60	-9,455	4,779	-1,576	-1000000	-1000000	-1000000
292,20	-9,482	4,788	-1,570	-1000000	-1000000	-1000000
292,80	-9,509	4,799	-1,566	-1000000	-1000000	-1000000
293,40	-9,536	4,808	-1,565	-1000000	-1000000	-1000000
294,00	-9,562	4,819	-1,563	-1000000	-1000000	-1000000
294,60	-9,588	4,828	-1,558	-1000000	-1000000	-1000000
295,20	-9,615	4,838	-1,549	-1000000	-1000000	-1000000
295,80	-9,642	4,848	-1,537	-1000000	-1000000	-1000000
296,40	-9,669	4,859	-1,518	-1000000	-1000000	-1000000
297,00	-9,696	4,869	-1,500	-1000000	-1000000	-1000000
297,60	-9,724	4,878	-1,490	-1000000	-1000000	-1000000
298,20	-9,750	4,888	-1,483	-1000000	-1000000	-1000000
298,80	-9,776	4,898	-1,481	-1000000	-1000000	-1000000
299,40	-9,803	4,909	-1,481	-1000000	-1000000	-1000000
300,00	-9,829	4,918	-1,482	-1000000	-1000000	-1000000
300,60	-9,856	4,928	-1,483	-1000000	-1000000	-1000000
301,20	-9,883	4,938	-1,483	-1000000	-1000000	-1000000
301,80	-9,909	4,949	-1,482	-1000000	-1000000	-1000000
302,40	-9,936	4,958	-1,481	-1000000	-1000000	-1000000
303,00	-9,962	4,968	-1,480	-1000000	-1000000	-1000000
303,60	-9,989	4,978	-1,480	-1000000	-1000000	-1000000
304,20	-10,01	4,988	-1,480	-1000000	-1000000	-1000000
304,80	-10,04	4,998	-1,481	-1000000	-1000000	-1000000
305,40	-10,07	5,008	-1,481	-1000000	-1000000	-1000000
306,00	-10,09	5,018	-1,482	-1000000	-1000000	-1000000
306,60	-10,12	5,028	-1,483	-1000000	-1000000	-1000000
307,20	-10,15	5,038	-1,485	-1000000	-1000000	-1000000
307,80	-10,17	5,048	-1,487	-1000000	-1000000	-1000000
308,40	-10,20	5,059	-1,487	-1000000	-1000000	-1000000
309,00	-10,22	5,068	-1,503	-1000000	-1000000	-1000000
309,60	-10,25	5,078	-1,575	-1000000	-1000000	-1000000
310,20	-10,28	5,088	-1,663	-1000000	-1000000	-1000000
310,80	-10,30	5,098	-1,563	-1000000	-1000000	-1000000
311,40	-10,33	5,108	-1,603	-1000000	-1000000	-1000000
312,00	-10,35	5,118	-0,1418	-1000000	-1000000	-1000000
312,60	-10,38	5,129	1,576	-1000000	-1000000	-1000000
313,20	-10,40	5,138	1,245	-1000000	-1000000	-1000000
313,80	-10,43	5,148	-0,4833	-1000000	-1000000	-1000000
314,40	-10,45	5,158	-0,8156	-1000000	-1000000	-1000000
315,00	-10,48	5,168	-1,110	-1000000	-1000000	-1000000
315,60	-10,51	5,178	-1,238	-1000000	-1000000	-1000000
316,20	-10,53	5,188	-1,238	-1000000	-1000000	-1000000
316,80	-10,56	5,198	-1,238	-1000000	-1000000	-1000000
317,40	-10,58	5,208	-1,238	-1000000	-1000000	-1000000
318,00	-10,61	5,218	-1,238	-1000000	-1000000	-1000000
318,60	-10,63	5,228	-1,238	-1000000	-1000000	-1000000
319,20	-10,66	5,238	-1,238	-1000000	-1000000	-1000000
319,80	-10,68	5,248	-1,238	-1000000	-1000000	-1000000
320,40	-10,71	5,258	-1,238	-1000000	-1000000	-1000000
321,00	-10,74	5,268	-1,238	-1000000	-1000000	-1000000
321,60	-10,76	5,278	-1,237	-1000000	-1000000	-1000000
322,20	-10,79	5,288	-1,237	-1000000	-1000000	-1000000
322,80	-10,81	5,298	-1,237	-1000000	-1000000	-1000000
323,40	-10,84	5,308	-1,237	-1000000	-1000000	-1000000
324,00	-10,86	5,318	-1,237	-1000000	-1000000	-1000000
324,60	-10,89	5,328	-1,237	-1000000	-1000000	-1000000
325,20	-10,91	5,340	-1,237	-1000000	-1000000	-1000000
325,80	-10,94	5,352	-1,237	-1000000	-1000000	-1000000
326,40	-10,96	5,362	-1,237	-1000000	-1000000	-1000000
327,00	-10,99	5,372	-1,237	-1000000	-1000000	-1000000
327,60	-11,01	5,382	-1,237	-1000000	-1000000	-1000000
328,20	-11,04	5,392	-1,237	-1000000	-1000000	-1000000
328,80	-11,06	5,402	-1,237	-1000000	-1000000	-1000000
329,40	-11,09	5,412	-1,237	-1000000	-1000000	-1000000
330,00	-11,11	5,422	-1,237	-1000000	-1000000	-1000000
330,60	-11,14	5,432	-1,237	-1000000	-1000000	-1000000
331,20	-11,16	5,442	-1,237	-1000000	-1000000	-1000000
331,80	-11,19	5,453	-1,237	-1000000	-1000000	-1000000
332,40	-11,21	5,463	-1,237	-1000000	-1000000	-1000000
333,00	-11,23	5,472	-1,237	-1000000	-1000000	-1000000
333,60	-11,26	5,482	-1,237	-1000000	-1000000	-1000000
334,20	-11,28	5,492	-1,237	-1000000	-1000000	-1000000
334,80	-11,30	5,502	-1,237	-1000000	-1000000	-1000000
335,40	-11,33	5,512	-1,237	-1000000	-1000000	-1000000
336,00	-11,35	5,523	-1,237	-1000000	-1000000	-1000000
336,60	-11,38	5,532	-1,237	-1000000	-1000000	-1000000
337,20	-11,40	5,542	-1,237	-1000000	-1000000	-1000000
337,80	-9,352	5,552	-1,239	-1000000	-1000000	-1000000
338,40	-9,411	5,562	-1,239	-1000000	-1000000	-1000000
339,00	-9,450	5,572	-1,239	-1000000	-1000000	-1000000
339,60	-9,487	5,582	-1,239	-1000000	-1000000	-1000000
340,20	-9,524	5,592	-1,239	-1000000	-1000000	-1000000
340,80	-9,560	5,602	-1,239	-1000000	-1000000	-1000000
341,40	-9,595	5,612	-1,239	-1000000	-1000000	-1000000
342,00	-9,632	5,622	-1,239	-1000000	-1000000	-1000000
342,60	-9,668	5,633	-1,238	-1000000	-1000000	-1000000
343,20	-9,703	5,642	-1,239	-1000000	-1000000	-1000000
343,80	-9,738	5,653	-1,239	-1000000	-1000000	-1000000
344,40	-9,774	5,662	-1,239	-1000000	-1000000	-1000000
345,00	-9,810	5,672	-1,239	-1000000	-1000000	-1000000
345,60	-9,845	5,682	-1,239	-1000000	-1000000	-1000000
346,20	-9,880	5,692	-1,239	-1000000	-1000000	-1000000
346,80	-9,914	5,702	-1,239	-1000000	-1000000	-1000000
347,40	-9,949	5,712	-1,239	-1000000	-1000000	-1000000
348,00	-9,984	5,723	-1,239	-1000000	-1000000	-1000000
348,60	-10,02	5,732	-1,239	-1000000	-1000000	-1000000
349,20	-10,05	5,743	-1,239	-1000000	-1000000	-1000000
349,80	-10,09	5,752	-1,239	-1000000	-1000000	-1000000
350,40	-10,12	5,763	-1,239	-1000000	-1000000	-1000000
351,00	-10,16	5,772	-1,239	-1000000	-1000000	-1000000
351,60	-10,19	5,782	-1,239	-1000000	-1000000	-1000000
352,20	-10,22	5,792	-1,239	-1000000	-1000000	-1000000
352,80	-10,26	5,802	-1,239	-1000000	-1000000	-1000000
353,40	-10,29	5,812	-1,239	-1000000	-1000000	-1000000
354,00	-10,32	5,822	-1,239	-1000000	-1000000	-1000000
354,60	-10,36	5,832	-1,239	-1000000	-1000000	-1000000
355,20	-10,39	5,842	-1,239	-1000000	-1000000	-1000000
355,80	-10,42	5,853	-1,239	-1000000	-1000000	-1000000
356,40	-10,46	5,862	-1,239	-1000000	-1000000	-1000000
357,00	-10,49	5,873	-1,239	-1000000	-1000000	-1000000
357,60	-10,53	5,882	-1,239	-1000000	-1000000	-1000000
358,20	-10,56	5,892	-1,239	-1000000	-1000000	-1000000
358,80	-10,59	5,902	-1,239	-1000000	-1000000	-1000000
359,40	-10,63	5,912	-1,239	-1000000	-1000000	-1000000
360,00	-10,66	5,922	-1,239	-1000000	-1000000	-1000000
360,60	-10,69	5,932	-1,239	-1000000	-1000000	-1000000
361,20	-10,72	5,942	-1,239	-1000000	-1000000	-1000000
361,80	-10,76	5,952	-1,239	-1000000	-1000000	-1000000
362,40	-10,79	5,963	-1,239	-1000000	-1000000	-1000000
363,00	-10,82	5,972	-1,239	-1000000	-1000000	-1000000
363,60	-10,86	5,983	-1,239	-1000000	-1000000	-1000000
364,20	-10,89	5,991	-1,239	-1000000	-1000000	-1000000
364,80	-10,92	6,003	-1,239	-1000000	-1000000	-1000000
365,40	-10,95	6,012	-1,239	-1000000	-1000000	-1000000
366,00	-10,99	6,022	-1,239	-1000000	-1000000	-1000000
366,60	-11,02	6,033	-1,239	-1000000	-1000000	-1000000
367,20	-11,05	6,042	-1,239	-1000000	-1000000	-1000000
367,80	-11,08	6,053	-1,239	-1000000	-1000000	-1000000
368,40	-11,11	6,061	-1,239	-1000000	-1000000	-1000000
369,00	-11,15	6,072	-1,239	-1000000	-1000000	-1000000
369,60	-11,18	6,082	-1,239	-1000000	-1000000	-1000000
370,20	-11,21	6,093	-1,239	-1000000	-1000000	-1000000
370,80	-11,24	6,102	-1,239	-1000000	-1000000	-1000000
371,40	-11,27	6,112	-1,239	-1000000	-1000000	-1000000
372,00	-11,30	6,122	-1,239	-1000000	-1000000	-1000000
372,60	-11,33	6,132	-1,239	-1000000	-1000000	-1000000
373,20	-11,37	6,141	-1,239	-1000000	-1000000	-1000000
373,80	-11,40	6,151	-1,239	-1000000	-1000000	-1000000
374,40	-11,43	6,162	-1,239	-1000000	-1000000	-1000000
375,00	-11,46	6,171	-1,239	-1000000	-1000000	-1000000
375,60	-11,49	6,182	-1,239	-1000000	-1000000	-1000000
376,20	-11,52	6,192	-1,239	-1000000	-1000000	-1000000
376,80	-11,55	6,202	-1,239	-1000000	-1000000	-1000000
377,40	-11,58	6,212	-1,239	-1000000	-1000000	-1000000
378,00	-11,61	6,222	-1,239	-1000000	-1000000	-1000000
378,60	-11,64	6,231	-1,239	-1000000	-1000000	-1000000
379,20	-11,67	6,242	-1,239	-1000000	-1000000	-1000000
379,80	-11,70	6,252	-1,239	-1000000	-1000000	-1000000
380,40	-11,73	6,262	-1,239	-1000000	-1000000	-1000000
381,00	-11,76	6,272	-1,239	-1000000	-1000000	-1000000
381,60	-11,79	6,282	-1,239	-1000000	-1000000	-1000000
382,20	-11,82	6,292	-1,239	-1000000	-1000000	-1000000
382,80	-11,85	6,302	-1,239	-1000000	-1000000	-1000000
383,40	-11,88	6,312	-1,239	-1000000	-1000000	-1000000
384,00	-11,91	6,322	-1,239	-1000000	-1000000	-1000000
384,60	-11,94	6,332	-1,239	-1000000	-1000000	-1000000
385,20	-11,97	6,342	-1,239	-1000000	-1000000	-1000000
385,80	-12,00	6,352	-1,239	-1000000	-1000000	-1000000
386,40	-12,03	6,362	-1,239	-1000000	-1000000	-1000000
387,00	-12,06	6,372	-1,239	-1000000	-1000000	-1000000
387,60	-12,09	6,382	-1,239	-1000000	-1000000	-1000000
388,20	-12,12	6,392	-1,239	-1000000	-1000000	-1000000
388,80	-12,15	6,402	-1,239	-1000000	-1000000	-1000000
389,40	-12,17	6,411	-1,239	-1000000	-1000000	-1000000
390,00	-12,20	6,421	-1,239	-1000000	-1000000	-1000000
390,60	-12,23	6,432	-1,239	-1000000	-1000000	-1000000
391,20	-12,26	6,442	-1,239	-1000000	-1000000	-1000000
391,80	-12,29	6,452	-1,239	-1000000	-1000000	-1000000
392,40	-12,32	6,462	-1,239	-1000000	-1000000	-1000000
393,00	-12,35	6,471	-1,239	-1000000	-1000000	-1000000
393,60	-12,38	6,481	-1,239	-1000000	-1000000	-1000000
394,20	-12,41	6,492	-1,239	-1000000	-1000000	-1000000
394,80	-12,43	6,502	-1,239	-1000000	-1000000	-1000000
395,40	-12,46	6,512	-1,239	-1000000	-1000000	-1000000
396,00	-12,49	6,522	-1,239	-1000000	-1000000	-1000000
396,60	-12,52	6,532	-1,239	-1000000	-1000000	-1000000
397,20	-12,55	6,541	-1,239	-1000000	-1000000	-1000000
397,80	-12,57	6,552	-1,239	-1000000	-1000000	-1000000
398,40	-12,60	6,561	-1,239	-1000000	-1000000	-1000000
399,00	-12,63	6,571	-1,239	-1000000	-1000000	-1000000
399,60	-12,66	6,581	-1,239	-1000000	-1000000	-1000000
400,20	-12,69	6,592	-1,239	-1000000	-1000000	-1000000
400,80	-12,71	6,602	-1,239	-1000000	-1000000	-1000000
401,40	-12,74	6,611	-1,239	-1000000	-1000000	-1000000
402,00	-12,77	6,622	-1,239	-1000000	-1000000	-1000000
402,60	-12,80	6,631	-1,239	-1000000	-1000000	-1000000
403,20	-12,82	6,642	-1,239	-1000000	-1000000	-1000000
403,80	-12,85	6,651	-1,239	-1000000	-1000000	-1000000
404,40	-12,88	6,662	-1,239	-1000000	-1000000	-1000000
405,00	-12,91	6,671	-1,239	-1000000	-1000000	-1000000
405,60	-12,93	6,682	-1,239	-1000000	-1000000	-1000000
406,20	-12,96	6,691	-1,239	-1000000	-1000000	-1000000
406,80	-12,99	6,702	-1,239	-1000000	-1000000	-1000000
407,40	-13,02	6,711	-1,239	-1000000	-1000000	-1000000
408,00	-13,04	6,721	-1,239	-1000000	-1000000	-1000000
408,60	-13,07	6,731	-1,239	-1000000	-1000000	-1000000
409,20	-13,10	6,741	-1,239	-1000000	-1000000	-1000000
409,80	-13,13	6,751	-1,239	-1000000	-1000000	-1000000
410,40	-13,15	6,761	-1,239	-1000000	-1000000	-1000000
411,00	-12,40	6,771	-1,240	-1000000	-1000000	-1000000
411,60	-12,44	6,780	-1,240	-1000000	-1000000	-1000000
412,20	-12,48	6,791	-1,240	-1000000	-1000000	-1000000
412,80	-12,51	6,801	-1,239	-1000000	-1000000	-1000000
413,40	-12,55	6,811	-1,239	-1000000	-1000000	-1000000
414,00	-12,59	6,821	-1,239	-1000000	-1000000	-1000000
414,60	-12,62	6,831	-1,239	-1000000	-1000000	-1000000
415,20	-12,66	6,841	-1,239	-1000000	-1000000	-1000000
415,80	-12,69	6,851	-1,239	-1000000	-1000000	-1000000
416,40	-12,73	6,861	-1,239	-1000000	-1000000	-1000000
417,00	-12,76	6,870	-1,239	-1000000	-1000000	-1000000
417,60	-12,79	6,881	-1,239	-1000000	-1000000	-1000000
418,20	-12,83	6,890	-1,239	-1000000	-1000000	-1000000
418,80	-12,86	6,901	-1,239	-1000000	-1000000	-1000000
419,40	-12,89	6,910	-1,239	-1000000	-1000000	-1000000
420,00	-12,92	6,921	-1,239	-1000000	-1000000	-1000000
420,60	-12,96	6,931	-1,239	-1000000	-1000000	-1000000
421,20	-12,99	6,940	-1,239	-1000000	-1000000	-1000000
421,80	-13,02	6,951	-1,239	-1000000	-1000000	-1000000
422,40	-13,05	6,960	-1,239	-1000000	-1000000	-1000000
423,00	-13,09	6,970	-1,239	-1000000	-1000000	-1000000
423,60	-13,12	6,980	-1,239	-1000000	-1000000	-1000000
424,20	-13,15	6,991	-1,239	-1000000	-1000000	-1000000
424,80	-13,18	7,000	-1,239	-1000000	-1000000	-1000000
425,40	-13,21	7,011	-1,239	-1000000	-1000000	-1000000
426,00	-13,24	7,020	-1,239	-1000000	-1000000	-1000000
426,60	-13,27	7,030	-1,239	-1000000	-1000000	-1000000
427,20	-13,30	7,040	-1,239	-1000000	-1000000	-1000000
427,80	-13,33	7,050	-1,239	-1000000	-1000000	-1000000
428,40	-13,36	7,060	-1,239	-1000000	-1000000	-1000000
429,00	-13,39	7,070	-1,239	-1000000	-1000000	-1000000
429,60	-13,42	7,080	-1,239	-1000000	-1000000	-1000000
430,20	-13,45	7,090	-1,239	-1000000	-1000000	-1000000
430,80	-13,48	7,100	-1,239	-1000000	-1000000	-1000000
431,40	-13,51	7,109	-1,239	-1000000	-1000000	-1000000
432,00	-13,54	7,120	-1,239	-1000000	-1000000	-1000000
432,60	-13,57	7,130	-1,239	-1000000	-1000000	-1000000
433,20	-13,60	7,141	-1,239	-1000000	-1000000	-1000000
433,80	-13,63	7,150	-1,239	-1000000	-1000000	-1000000
434,40	-13,66	7,160	-1,239	-1000000	-1000000	-1000000
435,00	-13,69	7,169	-1,239	-1000000	-1000000	-1000000
435,60	-13,72	7,180	-1,239	-1000000	-1000000	-1000000
436,20	-13,75	7,190	-1,239	-1000000	-1000000	-1000000
436,80	-13,77	7,200	-1,239	-1000000	-1000000	-1000000
437,40	-13,80	7,210	-1,239	-1000000	-1000000	-1000000
438,00	-13,83	7,219	-1,239	-1000000	-1000000	-1000000
438,60	-13,86	7,229	-1,239	-1000000	-1000000	-1000000
439,20	-13,88	7,239	-1,239	-1000000	-1000000	-1000000
439,80	-13,91	7,250	-1,240	-1000000	-1000000	-1000000
440,40	-13,94	7,259	-1,239	-1000000	-1000000	-1000000
441,00	-13,97	7,269	-1,239	-1000000	-1000000	-1000000
441,60	-13,99	7,278	-1,239	-1000000	-1000000	-1000000
442,20	-14,02	7,289	-1,239	-1000000	-1000000	-1000000
442,80	-14,05	7,299	-1,239	-1000000	-1000000	-1000000
443,40	-14,07	7,309	-1,239	-1000000	-1000000	-1000000
444,00	-14,10	7,319	-1,240	-1000000	-1000000	-1000000
444,60	-14,13	7,329	-1,240	-1000000	-1000000	-1000000
445,20	-14,16	7,339	-1,240	-1000000	-1000000	-1000000
445,80	-14,18	7,349	-1,240	-1000000	-1000000	-1000000
446,40	-14,21	7,359	-1,240	-1000000	-1000000	-1000000
447,00	-14,23	7,369	-1,240	-1000000	-1000000	-1000000
447,60	-14,26	7,379	-1,240	-1000000	-1000000	-1000000
448,20	-14,29	7,389	-1,240	-1000000	-1000000	-1000000
448,80	-14,31	7,399	-1,240	-1000000	-1000000	-1000000
449,40	-14,34	7,409	-1,240	-1000000	-1000000	-1000000
450,00	-14,36	7,419	-1,240	-1000000	-1000000	-1000000
450,60	-14,39	7,429	-1,240	-1000000	-1000000	-1000000
451,20	-14,41	7,439	-1,240	-1000000	-1000000	-1000000
451,80	-14,44	7,449	-1,240	-1000000	-1000000	-1000000
452,40	-14,46	7,459	-1,240	-1000000	-1000000	-1000000
453,00	-14,49	7,469	-1,240	-1000000	-1000000	-1000000
453,60	-14,51	7,479	-1,240	-1000000	-1000000	-1000000
454,20	-14,54	7,489	-1,240	-1000000	-1000000	-1000000
454,80	-14,56	7,499	-1,240	-1000000	-1000000	-1000000
455,40	-14,59	7,509	-1,240	-1000000	-1000000	-1000000
456,00	-14,61	7,519	-1,240	-1000000	-1000000	-1000000
456,60	-14,58	7,529	-1,240	-1000000	-1000000	-1000000
457,20	-14,61	7,539	-1,240	-1000000	-1000000	-1000000
457,80	-14,62	7,549	-1,240	-1000000	-1000000	-1000000
458,40	-14,64	7,559	-1,240	-1000000	-1000000	-1000000
459,00	0,1150	7,569	-1,239	-1000000	-1000000	-1000000
459,60	0,00374	7,579	-1,239	-1000000	-1000000	-1000000
460,20	0,00329	7,588	-1,238	-1000000	-1000000	-1000000
460,80	0,00033	7,599	-1,238	-1000000	-1000000	-1000000
461,40	-0,00067	7,608	-1,238	-1000000	-1000000	-1000000
462,00	-0,00070	7,619	-1,238	-1000000	-1000000	-1000000
462,60	-0,00104	7,628	-1,238	-1000000	-1000000	-1000000
463,20	-0,00308	7,639	-1,238	-1000000	-1000000	-1000000
463,80	-0,00452	7,649	-1,238	-1000000	-1000000	-1000000
464,40	-0,00459	7,659	-1,238	-1000000	-1000000	-1000000
465,00	-0,00472	7,669	-1,238	-1000000	-1000000	-1000000
465,60	-0,00481	7,679	-1,238	-1000000	-1000000	-1000000
466,20	-0,00462	7,689	-1,238	-1000000	-1000000	-1000000
466,30	-0,00470	7,690	-1,238	-1000000	-1000000	-1000000