File: notebooks/experimental_tests/results/carbon_tensile_tests/F7.txt
Zeit  1 - Standardmessrate [s]	Kraft [kN]	Weg [mm]	DD1 [Prom]	PMX_1 CH 3-2 [µm/m]	PMX_1 CH 3-3 [mm]	PMX_1 CH 3-4 [mm]
0	0,00299	-0,00119	-0,00052	-1000000	-1000000	-1000000
1,400	0,00283	-0,00081	-0,00170	-1000000	-1000000	-1000000
2,800	0,00284	-0,00061	-0,00206	-1000000	-1000000	-1000000
4,200	0,00276	-0,00021	-0,00204	-1000000	-1000000	-1000000
5,600	0,00250	0,00983	-0,00819	-1000000	-1000000	-1000000
7,000	-0,00204	0,03359	-0,03534	-1000000	-1000000	-1000000
8,400	-0,00539	0,05668	-0,07738	-1000000	-1000000	-1000000
9,800	-0,00957	0,08039	-0,1059	-1000000	-1000000	-1000000
11,20	-0,01752	0,1042	-0,1216	-1000000	-1000000	-1000000
12,60	-0,02184	0,1274	-0,1336	-1000000	-1000000	-1000000
14,00	-0,02611	0,1497	-0,1425	-1000000	-1000000	-1000000
15,40	-0,03009	0,1739	-0,1439	-1000000	-1000000	-1000000
16,80	-0,03438	0,1972	-0,1438	-1000000	-1000000	-1000000
18,20	-0,03785	0,2204	-0,1522	-1000000	-1000000	-1000000
19,60	-0,04211	0,2435	-0,1531	-1000000	-1000000	-1000000
21,00	-0,04528	0,2672	-0,1579	-1000000	-1000000	-1000000
22,40	-0,05002	0,2901	-0,1690	-1000000	-1000000	-1000000
23,80	-0,05370	0,3137	-0,1736	-1000000	-1000000	-1000000
25,20	-0,05884	0,3367	-0,1893	-1000000	-1000000	-1000000
26,60	-0,06248	0,3602	-0,1974	-1000000	-1000000	-1000000
28,00	-0,06655	0,3834	-0,2030	-1000000	-1000000	-1000000
29,40	-0,07111	0,4067	-0,2109	-1000000	-1000000	-1000000
30,80	-0,07461	0,4303	-0,2151	-1000000	-1000000	-1000000
32,20	-0,07906	0,4540	-0,2226	-1000000	-1000000	-1000000
33,60	-0,08661	0,4776	-0,2345	-1000000	-1000000	-1000000
35,00	-0,09109	0,4996	-0,2416	-1000000	-1000000	-1000000
36,40	-0,09538	0,5234	-0,2478	-1000000	-1000000	-1000000
37,80	-0,1015	0,5466	-0,2533	-1000000	-1000000	-1000000
39,20	-0,1071	0,5704	-0,2583	-1000000	-1000000	-1000000
40,60	-0,1113	0,5931	-0,2609	-1000000	-1000000	-1000000
42,00	-0,1164	0,6170	-0,2634	-1000000	-1000000	-1000000
43,40	-0,1193	0,6404	-0,2627	-1000000	-1000000	-1000000
44,80	-0,1238	0,6631	-0,2619	-1000000	-1000000	-1000000
46,20	-0,1274	0,6863	-0,2617	-1000000	-1000000	-1000000
47,60	-0,1289	0,7105	-0,2604	-1000000	-1000000	-1000000
49,00	-0,1335	0,7331	-0,2632	-1000000	-1000000	-1000000
50,40	-0,1371	0,7558	-0,2643	-1000000	-1000000	-1000000
51,80	-0,1429	0,7803	-0,2659	-1000000	-1000000	-1000000
53,20	-0,1481	0,8036	-0,2683	-1000000	-1000000	-1000000
54,60	-0,1529	0,8259	-0,2701	-1000000	-1000000	-1000000
56,00	-0,1601	0,8493	-0,2740	-1000000	-1000000	-1000000
57,40	-0,1655	0,8730	-0,2734	-1000000	-1000000	-1000000
58,80	-0,1728	0,8967	-0,2771	-1000000	-1000000	-1000000
60,20	-0,1803	0,9188	-0,2796	-1000000	-1000000	-1000000
61,60	-0,1889	0,9423	-0,2828	-1000000	-1000000	-1000000
63,00	-0,1994	0,9663	-0,2850	-1000000	-1000000	-1000000
64,40	-0,2087	0,9894	-0,2899	-1000000	-1000000	-1000000
65,80	-0,2205	1,012	-0,2941	-1000000	-1000000	-1000000
67,20	-0,2287	1,036	-0,2937	-1000000	-1000000	-1000000
68,60	-0,2357	1,060	-0,2928	-1000000	-1000000	-1000000
70,00	-0,2451	1,083	-0,2920	-1000000	-1000000	-1000000
71,40	-0,2520	1,106	-0,2919	-1000000	-1000000	-1000000
72,80	-0,2634	1,129	-0,2970	-1000000	-1000000	-1000000
74,20	-0,2695	1,153	-0,2909	-1000000	-1000000	-1000000
75,60	-0,2738	1,176	-0,2858	-1000000	-1000000	-1000000
77,00	-0,2780	1,199	-0,2813	-1000000	-1000000	-1000000
78,40	-0,2818	1,223	-0,2774	-1000000	-1000000	-1000000
79,80	-0,2818	1,246	-0,2723	-1000000	-1000000	-1000000
81,20	-0,2844	1,269	-0,2681	-1000000	-1000000	-1000000
82,60	-0,2871	1,292	-0,2672	-1000000	-1000000	-1000000
84,00	-0,2934	1,316	-0,2695	-1000000	-1000000	-1000000
85,40	-0,2989	1,339	-0,2716	-1000000	-1000000	-1000000
86,80	-0,3028	1,362	-0,2711	-1000000	-1000000	-1000000
88,20	-0,3060	1,385	-0,2693	-1000000	-1000000	-1000000
89,60	-0,3104	1,409	-0,2660	-1000000	-1000000	-1000000
91,00	-0,3117	1,433	-0,2633	-1000000	-1000000	-1000000
92,40	-0,3142	1,456	-0,2587	-1000000	-1000000	-1000000
93,80	-0,3179	1,479	-0,2581	-1000000	-1000000	-1000000
95,20	-0,3180	1,503	-0,2556	-1000000	-1000000	-1000000
96,60	-0,3179	1,526	-0,2522	-1000000	-1000000	-1000000
98,00	-0,3261	1,548	-0,2581	-1000000	-1000000	-1000000
99,40	-0,3370	1,573	-0,2663	-1000000	-1000000	-1000000
100,80	-0,3387	1,596	-0,2616	-1000000	-1000000	-1000000
102,20	-0,3425	1,619	-0,2602	-1000000	-1000000	-1000000
103,60	-0,3469	1,643	-0,2587	-1000000	-1000000	-1000000
105,00	-0,3512	1,666	-0,2592	-1000000	-1000000	-1000000
106,40	-0,3522	1,690	-0,2563	-1000000	-1000000	-1000000
107,80	-0,3591	1,712	-0,2561	-1000000	-1000000	-1000000
109,20	-0,3650	1,736	-0,2578	-1000000	-1000000	-1000000
110,60	-0,3718	1,760	-0,2583	-1000000	-1000000	-1000000
112,00	-0,3754	1,783	-0,2572	-1000000	-1000000	-1000000
113,40	-0,3864	1,806	-0,2619	-1000000	-1000000	-1000000
114,80	-0,3943	1,830	-0,2639	-1000000	-1000000	-1000000
116,20	-0,3997	1,853	-0,2624	-1000000	-1000000	-1000000
117,60	-0,3858	1,876	-0,2299	-1000000	-1000000	-1000000
119,00	-0,3916	1,898	-0,2423	-1000000	-1000000	-1000000
120,40	-0,4149	1,922	-0,2635	-1000000	-1000000	-1000000
121,80	-0,4156	1,945	-0,2568	-1000000	-1000000	-1000000
123,20	-0,4311	1,968	-0,2652	-1000000	-1000000	-1000000
124,60	-0,4329	1,992	-0,2580	-1000000	-1000000	-1000000
126,00	-0,4527	2,016	-0,2681	-1000000	-1000000	-1000000
127,40	-0,4503	2,039	-0,2520	-1000000	-1000000	-1000000
128,80	-0,4726	2,062	-0,2650	-1000000	-1000000	-1000000
130,20	-0,4702	2,085	-0,2502	-1000000	-1000000	-1000000
131,60	-0,4969	2,109	-0,2681	-1000000	-1000000	-1000000
133,00	-0,4996	2,132	-0,2554	-1000000	-1000000	-1000000
134,40	-0,5208	2,155	-0,2656	-1000000	-1000000	-1000000
135,80	-0,5349	2,178	-0,2658	-1000000	-1000000	-1000000
137,20	-0,5325	2,203	-0,2456	-1000000	-1000000	-1000000
138,60	-0,5628	2,225	-0,2644	-1000000	-1000000	-1000000
140,00	-0,5559	2,249	-0,2379	-1000000	-1000000	-1000000
141,40	-0,5878	2,272	-0,2586	-1000000	-1000000	-1000000
142,80	-0,6039	2,295	-0,2544	-1000000	-1000000	-1000000
144,20	-0,6124	2,319	-0,2488	-1000000	-1000000	-1000000
145,60	-0,6311	2,342	-0,2461	-1000000	-1000000	-1000000
147,00	-0,6440	2,366	-0,2428	-1000000	-1000000	-1000000
148,40	-0,6458	2,389	-0,2219	-1000000	-1000000	-1000000
149,80	-0,6793	2,412	-0,2398	-1000000	-1000000	-1000000
151,20	-0,6937	2,435	-0,2294	-1000000	-1000000	-1000000
152,60	-0,7026	2,459	-0,2203	-1000000	-1000000	-1000000
154,00	-0,7282	2,482	-0,2239	-1000000	-1000000	-1000000
155,40	-0,7368	2,505	-0,2128	-1000000	-1000000	-1000000
156,80	-0,7637	2,529	-0,2169	-1000000	-1000000	-1000000
158,20	-0,7776	2,552	-0,2105	-1000000	-1000000	-1000000
159,60	-0,8033	2,576	-0,2103	-1000000	-1000000	-1000000
161,00	-0,8159	2,599	-0,2019	-1000000	-1000000	-1000000
162,40	-0,8417	2,622	-0,1985	-1000000	-1000000	-1000000
163,80	-0,8653	2,646	-0,1993	-1000000	-1000000	-1000000
165,20	-0,8721	2,669	-0,1829	-1000000	-1000000	-1000000
166,60	-0,9074	2,692	-0,1921	-1000000	-1000000	-1000000
168,00	-0,9225	2,716	-0,1817	-1000000	-1000000	-1000000
169,40	-0,9554	2,739	-0,1871	-1000000	-1000000	-1000000
170,80	-0,9610	2,762	-0,1707	-1000000	-1000000	-1000000
172,20	-0,9946	2,785	-0,1803	-1000000	-1000000	-1000000
173,60	-1,008	2,809	-0,1678	-1000000	-1000000	-1000000
175,00	-1,043	2,832	-0,1786	-1000000	-1000000	-1000000
176,40	-1,059	2,855	-0,1620	-1000000	-1000000	-1000000
177,80	-1,092	2,878	-0,1727	-1000000	-1000000	-1000000
179,20	-1,117	2,902	-0,1690	-1000000	-1000000	-1000000
180,60	-1,142	2,924	-0,1695	-1000000	-1000000	-1000000
182,00	-1,176	2,948	-0,1729	-1000000	-1000000	-1000000
183,40	-1,181	2,972	-0,1537	-1000000	-1000000	-1000000
184,80	-1,215	2,995	-0,1659	-1000000	-1000000	-1000000
186,20	-1,250	3,018	-0,1682	-1000000	-1000000	-1000000
187,60	-1,263	3,042	-0,1565	-1000000	-1000000	-1000000
189,00	-1,298	3,065	-0,1644	-1000000	-1000000	-1000000
190,40	-1,332	3,088	-0,1660	-1000000	-1000000	-1000000
191,80	-1,345	3,111	-0,1515	-1000000	-1000000	-1000000
193,20	-1,381	3,135	-0,1616	-1000000	-1000000	-1000000
194,60	-1,415	3,158	-0,1655	-1000000	-1000000	-1000000
196,00	-1,444	3,181	-0,1625	-1000000	-1000000	-1000000
197,40	-1,462	3,205	-0,1594	-1000000	-1000000	-1000000
198,80	-1,499	3,228	-0,1684	-1000000	-1000000	-1000000
200,20	-1,533	3,251	-0,1735	-1000000	-1000000	-1000000
201,60	-1,557	3,274	-0,1655	-1000000	-1000000	-1000000
203,00	-1,561	3,297	-0,1520	-1000000	-1000000	-1000000
204,40	-1,599	3,321	-0,1688	-1000000	-1000000	-1000000
205,80	-1,632	3,344	-0,1759	-1000000	-1000000	-1000000
207,20	-1,663	3,368	-0,1762	-1000000	-1000000	-1000000
208,60	-1,692	3,391	-0,1781	-1000000	-1000000	-1000000
210,00	-1,717	3,415	-0,1750	-1000000	-1000000	-1000000
211,40	-1,751	3,438	-0,1800	-1000000	-1000000	-1000000
212,80	-1,786	3,461	-0,1824	-1000000	-1000000	-1000000
214,20	-1,817	3,484	-0,1814	-1000000	-1000000	-1000000
215,60	-1,846	3,508	-0,1797	-1000000	-1000000	-1000000
217,00	-1,879	3,531	-0,1843	-1000000	-1000000	-1000000
218,40	-1,912	3,554	-0,1851	-1000000	-1000000	-1000000
219,80	-1,940	3,578	-0,1813	-1000000	-1000000	-1000000
221,20	-1,973	3,601	-0,1836	-1000000	-1000000	-1000000
222,60	-2,007	3,624	-0,1843	-1000000	-1000000	-1000000
224,00	-2,036	3,647	-0,1787	-1000000	-1000000	-1000000
225,40	-2,068	3,671	-0,1777	-1000000	-1000000	-1000000
226,80	-2,076	3,695	-0,1560	-1000000	-1000000	-1000000
228,20	-2,113	3,718	-0,1645	-1000000	-1000000	-1000000
229,60	-2,149	3,741	-0,1646	-1000000	-1000000	-1000000
231,00	-2,184	3,764	-0,1599	-1000000	-1000000	-1000000
232,40	-2,217	3,788	-0,1534	-1000000	-1000000	-1000000
233,80	-2,248	3,811	-0,1419	-1000000	-1000000	-1000000
235,20	-2,279	3,834	-0,1361	-1000000	-1000000	-1000000
236,60	-2,311	3,858	-0,1311	-1000000	-1000000	-1000000
238,00	-2,342	3,881	-0,1213	-1000000	-1000000	-1000000
239,40	-2,376	3,904	-0,1155	-1000000	-1000000	-1000000
240,80	-2,410	3,928	-0,1088	-1000000	-1000000	-1000000
242,20	-2,445	3,951	-0,1018	-1000000	-1000000	-1000000
243,60	-2,477	3,973	-0,08970	-1000000	-1000000	-1000000
245,00	-2,507	3,996	-0,07350	-1000000	-1000000	-1000000
246,40	-2,542	4,020	-0,06223	-1000000	-1000000	-1000000
247,80	-2,576	4,043	-0,05130	-1000000	-1000000	-1000000
249,20	-2,612	4,066	-0,03920	-1000000	-1000000	-1000000
250,60	-2,647	4,090	-0,02765	-1000000	-1000000	-1000000
252,00	-2,676	4,114	-0,01578	-1000000	-1000000	-1000000
253,40	-2,709	4,137	-0,01352	-1000000	-1000000	-1000000
254,80	-2,744	4,160	-0,01101	-1000000	-1000000	-1000000
256,20	-2,778	4,184	-0,00860	-1000000	-1000000	-1000000
257,60	-2,810	4,208	-0,00421	-1000000	-1000000	-1000000
259,00	-2,844	4,230	-0,00172	-1000000	-1000000	-1000000
260,40	-2,878	4,254	-0,00056	-1000000	-1000000	-1000000
261,80	-2,912	4,277	0,00067	-1000000	-1000000	-1000000
263,20	-2,944	4,301	0,00330	-1000000	-1000000	-1000000
264,60	-2,977	4,324	0,00527	-1000000	-1000000	-1000000
266,00	-3,012	4,347	0,00489	-1000000	-1000000	-1000000
267,40	-3,046	4,371	0,00557	-1000000	-1000000	-1000000
268,80	-3,081	4,394	0,00526	-1000000	-1000000	-1000000
270,20	-3,114	4,417	0,00648	-1000000	-1000000	-1000000
271,60	-3,148	4,441	0,00613	-1000000	-1000000	-1000000
273,00	-3,182	4,464	0,00495	-1000000	-1000000	-1000000
274,40	-3,216	4,487	0,00473	-1000000	-1000000	-1000000
275,80	-3,250	4,510	0,00328	-1000000	-1000000	-1000000
277,20	-3,285	4,534	0,00219	-1000000	-1000000	-1000000
278,60	-3,317	4,557	0,00534	-1000000	-1000000	-1000000
280,00	-3,348	4,581	0,00564	-1000000	-1000000	-1000000
281,40	-3,382	4,603	0,00299	-1000000	-1000000	-1000000
282,80	-3,418	4,627	0,00150	-1000000	-1000000	-1000000
284,20	-3,453	4,651	0,00013	-1000000	-1000000	-1000000
285,60	-3,488	4,674	-0,00161	-1000000	-1000000	-1000000
287,00	-3,523	4,697	-0,00370	-1000000	-1000000	-1000000
288,40	-3,554	4,721	-0,00347	-1000000	-1000000	-1000000
289,80	-3,554	4,744	0,01527	-1000000	-1000000	-1000000
291,20	-3,592	4,767	-0,00422	-1000000	-1000000	-1000000
292,60	-3,630	4,790	-0,01358	-1000000	-1000000	-1000000
294,00	-3,665	4,814	-0,01882	-1000000	-1000000	-1000000
295,40	-3,701	4,838	-0,02333	-1000000	-1000000	-1000000
296,80	-3,737	4,860	-0,02803	-1000000	-1000000	-1000000
298,20	-3,775	4,884	-0,03256	-1000000	-1000000	-1000000
299,60	-3,811	4,908	-0,03807	-1000000	-1000000	-1000000
301,00	-3,848	4,930	-0,04218	-1000000	-1000000	-1000000
302,40	-3,883	4,953	-0,04522	-1000000	-1000000	-1000000
303,80	-3,917	4,978	-0,04715	-1000000	-1000000	-1000000
305,20	-3,946	5,001	-0,04798	-1000000	-1000000	-1000000
306,60	-3,982	5,024	-0,05389	-1000000	-1000000	-1000000
308,00	-4,018	5,048	-0,05962	-1000000	-1000000	-1000000
309,40	-4,054	5,071	-0,06365	-1000000	-1000000	-1000000
310,80	-4,089	5,094	-0,06633	-1000000	-1000000	-1000000
312,20	-4,125	5,117	-0,06766	-1000000	-1000000	-1000000
313,60	-4,160	5,141	-0,06666	-1000000	-1000000	-1000000
315,00	-4,195	5,164	-0,06486	-1000000	-1000000	-1000000
316,40	-4,229	5,187	-0,06507	-1000000	-1000000	-1000000
317,80	-4,266	5,211	-0,06555	-1000000	-1000000	-1000000
319,20	-4,303	5,234	-0,06540	-1000000	-1000000	-1000000
320,60	-4,339	5,258	-0,06431	-1000000	-1000000	-1000000
322,00	-4,376	5,281	-0,06351	-1000000	-1000000	-1000000
323,40	-4,412	5,304	-0,06253	-1000000	-1000000	-1000000
324,80	-4,446	5,327	-0,05910	-1000000	-1000000	-1000000
326,20	-4,480	5,354	-0,05738	-1000000	-1000000	-1000000
327,60	-4,516	5,378	-0,05722	-1000000	-1000000	-1000000
329,00	-4,557	5,401	-0,05744	-1000000	-1000000	-1000000
330,40	-4,594	5,425	-0,05852	-1000000	-1000000	-1000000
331,80	-4,630	5,448	-0,05945	-1000000	-1000000	-1000000
333,20	-4,665	5,471	-0,06007	-1000000	-1000000	-1000000
334,60	-4,701	5,494	-0,06057	-1000000	-1000000	-1000000
336,00	-4,737	5,518	-0,06411	-1000000	-1000000	-1000000
337,40	-4,773	5,541	-0,06801	-1000000	-1000000	-1000000
338,80	-4,810	5,564	-0,07186	-1000000	-1000000	-1000000
340,20	-4,846	5,587	-0,07595	-1000000	-1000000	-1000000
341,60	-4,883	5,611	-0,07924	-1000000	-1000000	-1000000
343,00	-4,921	5,635	-0,08276	-1000000	-1000000	-1000000
344,40	-4,956	5,658	-0,08618	-1000000	-1000000	-1000000
345,80	-4,992	5,682	-0,08680	-1000000	-1000000	-1000000
347,20	-5,027	5,705	-0,08973	-1000000	-1000000	-1000000
348,60	-5,064	5,728	-0,09407	-1000000	-1000000	-1000000
350,00	-5,101	5,751	-0,09880	-1000000	-1000000	-1000000
351,40	-5,138	5,775	-0,1036	-1000000	-1000000	-1000000
352,80	-5,175	5,798	-0,1087	-1000000	-1000000	-1000000
354,20	-5,213	5,821	-0,1145	-1000000	-1000000	-1000000
355,60	-5,248	5,845	-0,1179	-1000000	-1000000	-1000000
357,00	-5,284	5,868	-0,1215	-1000000	-1000000	-1000000
358,40	-5,320	5,891	-0,1260	-1000000	-1000000	-1000000
359,80	-5,357	5,914	-0,1305	-1000000	-1000000	-1000000
361,20	-5,395	5,938	-0,1344	-1000000	-1000000	-1000000
362,60	-5,431	5,962	-0,1360	-1000000	-1000000	-1000000
364,00	-5,468	5,984	-0,1369	-1000000	-1000000	-1000000
365,40	-5,505	6,008	-0,1373	-1000000	-1000000	-1000000
366,80	-5,540	6,032	-0,1362	-1000000	-1000000	-1000000
368,20	-5,577	6,055	-0,1323	-1000000	-1000000	-1000000
369,60	-5,613	6,077	-0,1299	-1000000	-1000000	-1000000
371,00	-5,649	6,100	-0,1291	-1000000	-1000000	-1000000
372,40	-5,687	6,125	-0,1280	-1000000	-1000000	-1000000
373,80	-5,724	6,147	-0,1257	-1000000	-1000000	-1000000
375,20	-5,761	6,170	-0,1217	-1000000	-1000000	-1000000
376,60	-5,799	6,193	-0,1180	-1000000	-1000000	-1000000
378,00	-5,837	6,218	-0,1143	-1000000	-1000000	-1000000
379,40	-5,875	6,241	-0,1106	-1000000	-1000000	-1000000
380,80	-5,912	6,264	-0,1069	-1000000	-1000000	-1000000
382,20	-5,949	6,288	-0,1046	-1000000	-1000000	-1000000
383,60	-5,985	6,311	-0,1031	-1000000	-1000000	-1000000
385,00	-6,022	6,333	-0,1025	-1000000	-1000000	-1000000
386,40	-6,058	6,357	-0,1033	-1000000	-1000000	-1000000
387,80	-6,095	6,381	-0,1062	-1000000	-1000000	-1000000
389,20	-6,131	6,404	-0,1101	-1000000	-1000000	-1000000
390,60	-6,169	6,427	-0,1150	-1000000	-1000000	-1000000
392,00	-6,207	6,450	-0,1184	-1000000	-1000000	-1000000
393,40	-6,243	6,474	-0,1216	-1000000	-1000000	-1000000
394,80	-6,281	6,497	-0,1239	-1000000	-1000000	-1000000
396,20	-6,317	6,520	-0,1257	-1000000	-1000000	-1000000
397,60	-6,354	6,544	-0,1281	-1000000	-1000000	-1000000
399,00	-6,392	6,567	-0,1305	-1000000	-1000000	-1000000
400,40	-6,429	6,590	-0,1338	-1000000	-1000000	-1000000
401,80	-6,467	6,613	-0,1388	-1000000	-1000000	-1000000
403,20	-6,505	6,637	-0,1432	-1000000	-1000000	-1000000
404,60	-6,542	6,660	-0,1481	-1000000	-1000000	-1000000
406,00	-6,579	6,683	-0,1526	-1000000	-1000000	-1000000
407,40	-6,615	6,706	-0,1566	-1000000	-1000000	-1000000
408,80	-6,652	6,730	-0,1601	-1000000	-1000000	-1000000
410,20	-6,690	6,753	-0,1629	-1000000	-1000000	-1000000
411,60	-6,727	6,776	-0,1651	-1000000	-1000000	-1000000
413,00	-6,764	6,800	-0,1675	-1000000	-1000000	-1000000
414,40	-6,802	6,823	-0,1693	-1000000	-1000000	-1000000
415,80	-6,840	6,847	-0,1705	-1000000	-1000000	-1000000
417,20	-6,877	6,870	-0,1710	-1000000	-1000000	-1000000
418,60	-6,916	6,892	-0,1731	-1000000	-1000000	-1000000
420,00	-6,953	6,916	-0,1755	-1000000	-1000000	-1000000
421,40	-6,991	6,940	-0,1767	-1000000	-1000000	-1000000
422,80	-7,029	6,962	-0,1779	-1000000	-1000000	-1000000
424,20	-7,066	6,986	-0,1788	-1000000	-1000000	-1000000
425,60	-7,101	7,010	-0,1790	-1000000	-1000000	-1000000
427,00	-7,140	7,032	-0,1790	-1000000	-1000000	-1000000
428,40	-7,176	7,056	-0,1787	-1000000	-1000000	-1000000
429,80	-7,214	7,079	-0,1784	-1000000	-1000000	-1000000
431,20	-7,251	7,103	-0,1790	-1000000	-1000000	-1000000
432,60	-7,290	7,125	-0,1788	-1000000	-1000000	-1000000
434,00	-7,327	7,148	-0,1783	-1000000	-1000000	-1000000
435,40	-7,363	7,172	-0,1770	-1000000	-1000000	-1000000
436,80	-7,401	7,195	-0,1751	-1000000	-1000000	-1000000
438,20	-7,438	7,218	-0,1735	-1000000	-1000000	-1000000
439,60	-7,478	7,242	-0,1719	-1000000	-1000000	-1000000
441,00	-7,513	7,265	-0,1696	-1000000	-1000000	-1000000
442,40	-7,551	7,288	-0,1685	-1000000	-1000000	-1000000
443,80	-7,590	7,311	-0,1675	-1000000	-1000000	-1000000
445,20	-7,627	7,335	-0,1661	-1000000	-1000000	-1000000
446,60	-7,664	7,358	-0,1651	-1000000	-1000000	-1000000
448,00	-7,702	7,381	-0,1654	-1000000	-1000000	-1000000
449,40	-7,740	7,404	-0,1645	-1000000	-1000000	-1000000
450,80	-7,778	7,428	-0,1642	-1000000	-1000000	-1000000
452,20	-7,817	7,451	-0,1630	-1000000	-1000000	-1000000
453,60	-7,854	7,474	-0,1615	-1000000	-1000000	-1000000
455,00	-7,892	7,497	-0,1613	-1000000	-1000000	-1000000
456,40	-7,931	7,521	-0,1619	-1000000	-1000000	-1000000
457,80	-7,968	7,544	-0,1633	-1000000	-1000000	-1000000
459,20	-8,006	7,567	-0,1638	-1000000	-1000000	-1000000
460,60	-8,043	7,591	-0,1638	-1000000	-1000000	-1000000
462,00	-8,080	7,615	-0,1648	-1000000	-1000000	-1000000
463,40	-8,119	7,638	-0,1658	-1000000	-1000000	-1000000
464,80	-8,156	7,661	-0,1668	-1000000	-1000000	-1000000
466,20	-8,194	7,684	-0,1687	-1000000	-1000000	-1000000
467,60	-8,232	7,708	-0,1706	-1000000	-1000000	-1000000
469,00	-8,269	7,731	-0,1716	-1000000	-1000000	-1000000
470,40	-8,306	7,754	-0,1715	-1000000	-1000000	-1000000
471,80	-8,344	7,777	-0,1731	-1000000	-1000000	-1000000
473,20	-8,381	7,801	-0,1749	-1000000	-1000000	-1000000
474,60	-8,419	7,824	-0,1755	-1000000	-1000000	-1000000
476,00	-8,453	7,848	-0,1757	-1000000	-1000000	-1000000
477,40	-8,490	7,871	-0,1759	-1000000	-1000000	-1000000
478,80	-8,528	7,895	-0,1765	-1000000	-1000000	-1000000
480,20	-8,566	7,917	-0,1769	-1000000	-1000000	-1000000
481,60	-8,604	7,941	-0,1775	-1000000	-1000000	-1000000
483,00	-8,641	7,965	-0,1783	-1000000	-1000000	-1000000
484,40	-8,679	7,988	-0,1035	-1000000	-1000000	-1000000
485,80	-8,716	8,011	-0,1576	-1000000	-1000000	-1000000
487,20	-8,751	8,035	3,228	-1000000	-1000000	-1000000
488,60	-8,791	8,057	0,4777	-1000000	-1000000	-1000000
490,00	-8,825	8,080	0,3938	-1000000	-1000000	-1000000
491,40	-8,863	8,104	0,3936	-1000000	-1000000	-1000000
492,80	-8,901	8,128	0,3935	-1000000	-1000000	-1000000
494,20	-8,939	8,150	0,3934	-1000000	-1000000	-1000000
495,60	-8,976	8,173	0,3933	-1000000	-1000000	-1000000
497,00	-9,013	8,197	0,3931	-1000000	-1000000	-1000000
498,40	-9,051	8,220	0,3932	-1000000	-1000000	-1000000
499,80	-9,092	8,243	0,3932	-1000000	-1000000	-1000000
501,20	-9,129	8,267	0,3931	-1000000	-1000000	-1000000
502,60	-9,167	8,291	0,3931	-1000000	-1000000	-1000000
504,00	-9,204	8,314	0,3930	-1000000	-1000000	-1000000
505,40	-9,242	8,337	0,3930	-1000000	-1000000	-1000000
506,80	-9,278	8,360	0,3930	-1000000	-1000000	-1000000
508,20	-9,312	8,384	0,3929	-1000000	-1000000	-1000000
509,60	-9,349	8,407	0,3931	-1000000	-1000000	-1000000
511,00	-9,386	8,430	0,3930	-1000000	-1000000	-1000000
512,40	-9,423	8,454	0,3930	-1000000	-1000000	-1000000
513,80	-9,459	8,477	0,3930	-1000000	-1000000	-1000000
515,20	-9,495	8,501	0,3930	-1000000	-1000000	-1000000
516,60	-9,533	8,524	0,3929	-1000000	-1000000	-1000000
518,00	-9,569	8,547	0,3929	-1000000	-1000000	-1000000
519,40	-9,604	8,571	0,3928	-1000000	-1000000	-1000000
520,80	-9,640	8,594	0,3928	-1000000	-1000000	-1000000
522,20	-9,676	8,617	0,3927	-1000000	-1000000	-1000000
523,60	-9,712	8,641	0,3927	-1000000	-1000000	-1000000
525,00	-9,746	8,663	0,3927	-1000000	-1000000	-1000000
526,40	-9,781	8,687	0,3927	-1000000	-1000000	-1000000
527,80	-9,814	8,710	0,3927	-1000000	-1000000	-1000000
529,20	-9,847	8,734	0,3926	-1000000	-1000000	-1000000
530,60	-9,880	8,758	0,3926	-1000000	-1000000	-1000000
532,00	-9,912	8,780	0,3926	-1000000	-1000000	-1000000
533,40	-9,944	8,803	0,3925	-1000000	-1000000	-1000000
534,80	-9,973	8,827	0,3925	-1000000	-1000000	-1000000
536,20	-10,00	8,851	0,3925	-1000000	-1000000	-1000000
537,60	-10,03	8,874	0,3925	-1000000	-1000000	-1000000
539,00	-10,06	8,897	0,3925	-1000000	-1000000	-1000000
540,40	-10,09	8,920	0,3925	-1000000	-1000000	-1000000
541,80	-10,12	8,943	0,3925	-1000000	-1000000	-1000000
543,20	-10,15	8,966	0,3924	-1000000	-1000000	-1000000
544,60	-10,17	8,990	0,3923	-1000000	-1000000	-1000000
546,00	-10,20	9,014	0,3924	-1000000	-1000000	-1000000
547,40	-10,22	9,036	0,3924	-1000000	-1000000	-1000000
548,80	-10,25	9,060	0,3923	-1000000	-1000000	-1000000
550,20	-10,28	9,084	0,3923	-1000000	-1000000	-1000000
551,60	-10,30	9,107	0,3923	-1000000	-1000000	-1000000
553,00	-10,33	9,130	0,3923	-1000000	-1000000	-1000000
554,40	-10,35	9,153	0,3923	-1000000	-1000000	-1000000
555,80	-10,37	9,177	0,3921	-1000000	-1000000	-1000000
557,20	-10,39	9,199	0,3921	-1000000	-1000000	-1000000
558,60	-10,41	9,223	0,3922	-1000000	-1000000	-1000000
560,00	-10,44	9,246	0,3920	-1000000	-1000000	-1000000
561,40	-10,46	9,270	0,3920	-1000000	-1000000	-1000000
562,80	-10,48	9,293	0,3921	-1000000	-1000000	-1000000
564,20	-10,50	9,316	0,3921	-1000000	-1000000	-1000000
565,60	-10,53	9,339	0,3920	-1000000	-1000000	-1000000
567,00	-10,55	9,363	0,3919	-1000000	-1000000	-1000000
568,40	-10,57	9,386	0,3920	-1000000	-1000000	-1000000
569,80	-10,60	9,409	0,3919	-1000000	-1000000	-1000000
571,20	-10,62	9,433	0,3920	-1000000	-1000000	-1000000
572,60	-10,64	9,456	0,3919	-1000000	-1000000	-1000000
574,00	-10,67	9,479	0,3918	-1000000	-1000000	-1000000
575,40	-10,69	9,502	0,3918	-1000000	-1000000	-1000000
576,80	-10,71	9,527	0,3919	-1000000	-1000000	-1000000
578,20	-10,73	9,550	0,3918	-1000000	-1000000	-1000000
579,60	-10,76	9,573	0,3918	-1000000	-1000000	-1000000
581,00	-10,78	9,596	0,3918	-1000000	-1000000	-1000000
582,40	-10,80	9,619	0,3918	-1000000	-1000000	-1000000
583,80	-10,82	9,643	0,3919	-1000000	-1000000	-1000000
585,20	-10,85	9,666	0,3917	-1000000	-1000000	-1000000
586,60	-10,87	9,690	0,3917	-1000000	-1000000	-1000000
588,00	-10,89	9,713	0,3917	-1000000	-1000000	-1000000
589,40	-10,92	9,736	0,3916	-1000000	-1000000	-1000000
590,80	-10,94	9,759	0,3917	-1000000	-1000000	-1000000
592,20	-10,96	9,784	0,3917	-1000000	-1000000	-1000000
593,60	-10,99	9,807	0,3915	-1000000	-1000000	-1000000
595,00	-11,01	9,830	0,3916	-1000000	-1000000	-1000000
596,40	-11,03	9,853	0,3917	-1000000	-1000000	-1000000
597,80	-11,05	9,877	0,3916	-1000000	-1000000	-1000000
599,20	-11,08	9,900	0,3916	-1000000	-1000000	-1000000
600,60	-11,10	9,923	0,3915	-1000000	-1000000	-1000000
602,00	-11,12	9,946	0,3916	-1000000	-1000000	-1000000
603,40	-11,15	9,970	0,3916	-1000000	-1000000	-1000000
604,80	-11,16	9,993	0,3916	-1000000	-1000000	-1000000
606,20	-11,19	10,02	0,3916	-1000000	-1000000	-1000000
607,60	-11,21	10,04	0,3915	-1000000	-1000000	-1000000
609,00	-11,23	10,06	0,3915	-1000000	-1000000	-1000000
610,40	-11,25	10,09	0,3914	-1000000	-1000000	-1000000
611,80	-11,28	10,11	0,3916	-1000000	-1000000	-1000000
613,20	-11,30	10,13	0,3914	-1000000	-1000000	-1000000
614,60	-11,32	10,16	0,3915	-1000000	-1000000	-1000000
616,00	-11,34	10,18	0,3915	-1000000	-1000000	-1000000
617,40	-11,36	10,20	0,3914	-1000000	-1000000	-1000000
618,80	-11,38	10,23	0,3914	-1000000	-1000000	-1000000
620,20	-11,40	10,25	0,3914	-1000000	-1000000	-1000000
621,60	-11,43	10,27	0,3914	-1000000	-1000000	-1000000
623,00	-11,45	10,30	0,3914	-1000000	-1000000	-1000000
624,40	-11,47	10,32	0,3914	-1000000	-1000000	-1000000
625,80	-11,49	10,34	0,3914	-1000000	-1000000	-1000000
627,20	-11,51	10,37	0,3913	-1000000	-1000000	-1000000
628,60	-11,53	10,39	0,3913	-1000000	-1000000	-1000000
630,00	-11,55	10,41	0,3914	-1000000	-1000000	-1000000
631,40	-11,57	10,44	0,3914	-1000000	-1000000	-1000000
632,80	-11,59	10,46	0,3913	-1000000	-1000000	-1000000
634,20	-11,62	10,48	0,3913	-1000000	-1000000	-1000000
635,60	-11,63	10,51	0,3915	-1000000	-1000000	-1000000
637,00	-11,65	10,53	0,3914	-1000000	-1000000	-1000000
638,40	-11,68	10,55	0,3913	-1000000	-1000000	-1000000
639,80	-11,70	10,58	0,3913	-1000000	-1000000	-1000000
641,20	-11,72	10,60	0,3913	-1000000	-1000000	-1000000
642,60	-11,74	10,62	0,3913	-1000000	-1000000	-1000000
644,00	-11,76	10,65	0,3912	-1000000	-1000000	-1000000
645,40	-11,78	10,67	0,3913	-1000000	-1000000	-1000000
646,80	-11,80	10,70	0,3913	-1000000	-1000000	-1000000
648,20	-11,82	10,72	0,3913	-1000000	-1000000	-1000000
649,60	-11,84	10,74	0,3913	-1000000	-1000000	-1000000
651,00	-11,86	10,77	0,3914	-1000000	-1000000	-1000000
652,40	-11,88	10,79	0,3914	-1000000	-1000000	-1000000
653,80	-11,91	10,81	0,3914	-1000000	-1000000	-1000000
655,20	-11,92	10,84	0,3913	-1000000	-1000000	-1000000
656,60	-11,94	10,86	0,3914	-1000000	-1000000	-1000000
658,00	-11,96	10,88	0,3913	-1000000	-1000000	-1000000
659,40	-11,99	10,91	0,3914	-1000000	-1000000	-1000000
660,80	-12,00	10,93	0,3913	-1000000	-1000000	-1000000
662,20	-12,03	10,95	0,3913	-1000000	-1000000	-1000000
663,60	-12,04	10,98	0,3914	-1000000	-1000000	-1000000
665,00	-12,07	11,00	0,3913	-1000000	-1000000	-1000000
666,40	-12,09	11,02	0,3913	-1000000	-1000000	-1000000
667,80	-12,11	11,05	0,3913	-1000000	-1000000	-1000000
669,20	-12,13	11,07	0,3913	-1000000	-1000000	-1000000
670,60	-12,15	11,09	0,3912	-1000000	-1000000	-1000000
672,00	-12,17	11,12	0,3912	-1000000	-1000000	-1000000
673,40	-12,19	11,14	0,3914	-1000000	-1000000	-1000000
674,80	-12,21	11,16	0,3911	-1000000	-1000000	-1000000
676,20	-12,23	11,19	0,3913	-1000000	-1000000	-1000000
677,60	-12,25	11,21	0,3913	-1000000	-1000000	-1000000
679,00	-12,27	11,23	0,3912	-1000000	-1000000	-1000000
680,40	-12,29	11,26	0,3913	-1000000	-1000000	-1000000
681,80	-12,31	11,28	0,3912	-1000000	-1000000	-1000000
683,20	-12,33	11,30	0,3912	-1000000	-1000000	-1000000
684,60	-12,35	11,32	0,3911	-1000000	-1000000	-1000000
686,00	-12,37	11,35	0,3911	-1000000	-1000000	-1000000
687,40	-12,39	11,37	0,3911	-1000000	-1000000	-1000000
688,80	-12,40	11,39	0,3912	-1000000	-1000000	-1000000
690,20	-12,42	11,42	0,3912	-1000000	-1000000	-1000000
691,60	-12,44	11,44	0,3912	-1000000	-1000000	-1000000
693,00	-12,46	11,46	0,3911	-1000000	-1000000	-1000000
694,40	-12,48	11,49	0,3911	-1000000	-1000000	-1000000
695,80	-12,50	11,51	0,3911	-1000000	-1000000	-1000000
697,20	-12,52	11,54	0,3911	-1000000	-1000000	-1000000
698,60	-12,54	11,56	0,3912	-1000000	-1000000	-1000000
700,00	-12,56	11,58	0,3912	-1000000	-1000000	-1000000
701,40	-12,58	11,60	0,3910	-1000000	-1000000	-1000000
702,80	-12,60	11,63	0,3911	-1000000	-1000000	-1000000
704,20	-12,62	11,65	0,3910	-1000000	-1000000	-1000000
705,60	-12,64	11,67	0,3910	-1000000	-1000000	-1000000
707,00	-12,65	11,70	0,3911	-1000000	-1000000	-1000000
708,40	-12,67	11,72	0,3909	-1000000	-1000000	-1000000
709,80	-12,69	11,74	0,3910	-1000000	-1000000	-1000000
711,20	-12,71	11,77	0,3911	-1000000	-1000000	-1000000
712,60	-12,73	11,79	0,3911	-1000000	-1000000	-1000000
714,00	-12,74	11,82	0,3911	-1000000	-1000000	-1000000
715,40	-12,76	11,84	0,3911	-1000000	-1000000	-1000000
716,80	-12,78	11,86	0,3911	-1000000	-1000000	-1000000
718,20	-12,80	11,88	0,3912	-1000000	-1000000	-1000000
719,60	-12,81	11,91	0,3911	-1000000	-1000000	-1000000
721,00	-12,83	11,93	0,3911	-1000000	-1000000	-1000000
722,40	-12,85	11,95	0,3912	-1000000	-1000000	-1000000
723,80	-12,86	11,98	0,3912	-1000000	-1000000	-1000000
725,20	-12,88	12,00	0,3912	-1000000	-1000000	-1000000
726,60	-12,90	12,02	0,3912	-1000000	-1000000	-1000000
728,00	-12,91	12,05	0,3912	-1000000	-1000000	-1000000
729,40	-12,93	12,07	0,3912	-1000000	-1000000	-1000000
730,80	-12,94	12,09	0,3912	-1000000	-1000000	-1000000
732,20	-12,96	12,12	0,3911	-1000000	-1000000	-1000000
733,60	-12,98	12,14	0,3912	-1000000	-1000000	-1000000
735,00	-12,99	12,16	0,3912	-1000000	-1000000	-1000000
736,40	-13,01	12,19	0,3912	-1000000	-1000000	-1000000
737,80	-13,02	12,21	0,3911	-1000000	-1000000	-1000000
739,20	-13,03	12,23	0,3911	-1000000	-1000000	-1000000
740,60	-13,05	12,26	0,3911	-1000000	-1000000	-1000000
742,00	-13,06	12,28	0,3911	-1000000	-1000000	-1000000
743,40	-13,08	12,30	0,3911	-1000000	-1000000	-1000000
744,80	-13,09	12,33	0,3910	-1000000	-1000000	-1000000
746,20	-13,10	12,35	0,3912	-1000000	-1000000	-1000000
747,60	-13,12	12,37	0,3912	-1000000	-1000000	-1000000
749,00	-13,13	12,40	0,3911	-1000000	-1000000	-1000000
750,40	-13,11	12,42	0,3910	-1000000	-1000000	-1000000
751,80	-13,09	12,44	0,3911	-1000000	-1000000	-1000000
753,20	-13,06	12,47	0,3911	-1000000	-1000000	-1000000
754,60	-13,04	12,49	0,3910	-1000000	-1000000	-1000000
756,00	-13,01	12,51	0,3910	-1000000	-1000000	-1000000
757,40	-12,98	12,54	0,3910	-1000000	-1000000	-1000000
758,80	-12,94	12,56	0,3910	-1000000	-1000000	-1000000
760,20	-12,91	12,58	0,3910	-1000000	-1000000	-1000000
761,60	-12,87	12,61	0,3910	-1000000	-1000000	-1000000
763,00	-12,83	12,63	0,3910	-1000000	-1000000	-1000000
764,40	-12,79	12,65	0,3910	-1000000	-1000000	-1000000
765,80	-12,75	12,68	0,3910	-1000000	-1000000	-1000000
767,20	-12,71	12,70	0,3910	-1000000	-1000000	-1000000
768,60	-12,67	12,72	0,3909	-1000000	-1000000	-1000000
770,00	-12,63	12,75	0,3909	-1000000	-1000000	-1000000
771,40	-12,59	12,77	0,3910	-1000000	-1000000	-1000000
772,80	-12,56	12,79	0,3909	-1000000	-1000000	-1000000
774,20	-12,52	12,82	0,3910	-1000000	-1000000	-1000000
775,60	-12,49	12,84	0,3909	-1000000	-1000000	-1000000
777,00	-12,45	12,86	0,3910	-1000000	-1000000	-1000000
778,40	-12,41	12,89	0,3909	-1000000	-1000000	-1000000
779,80	-12,38	12,91	0,3909	-1000000	-1000000	-1000000
781,20	-12,34	12,93	0,3910	-1000000	-1000000	-1000000
782,60	-12,30	12,96	0,3910	-1000000	-1000000	-1000000
784,00	-12,26	12,98	0,3909	-1000000	-1000000	-1000000
785,40	-12,22	13,00	0,3909	-1000000	-1000000	-1000000
786,80	-12,18	13,03	0,3910	-1000000	-1000000	-1000000
788,20	-12,13	13,05	0,3909	-1000000	-1000000	-1000000
789,60	-12,08	13,07	0,3909	-1000000	-1000000	-1000000
791,00	-12,03	13,10	0,3908	-1000000	-1000000	-1000000
792,40	-11,99	13,12	0,3908	-1000000	-1000000	-1000000
793,80	-11,93	13,14	0,3909	-1000000	-1000000	-1000000
795,20	-11,88	13,17	0,3908	-1000000	-1000000	-1000000
796,60	-11,83	13,19	0,3909	-1000000	-1000000	-1000000
798,00	-11,77	13,21	0,3908	-1000000	-1000000	-1000000
799,40	-11,71	13,24	0,3909	-1000000	-1000000	-1000000
800,80	-11,65	13,26	0,3908	-1000000	-1000000	-1000000
802,20	-11,59	13,28	0,3908	-1000000	-1000000	-1000000
803,60	-11,53	13,31	0,3907	-1000000	-1000000	-1000000
805,00	-11,47	13,33	0,3908	-1000000	-1000000	-1000000
806,40	-11,41	13,35	0,3907	-1000000	-1000000	-1000000
807,80	-11,36	13,38	0,3908	-1000000	-1000000	-1000000
809,20	-11,30	13,40	0,3907	-1000000	-1000000	-1000000
810,60	-11,24	13,42	0,3908	-1000000	-1000000	-1000000
812,00	-11,19	13,45	0,3908	-1000000	-1000000	-1000000
813,40	-11,13	13,47	0,3907	-1000000	-1000000	-1000000
814,80	-11,08	13,49	0,3908	-1000000	-1000000	-1000000
816,20	-11,03	13,51	0,3909	-1000000	-1000000	-1000000
817,60	-10,97	13,54	0,3907	-1000000	-1000000	-1000000
819,00	-10,92	13,56	0,3907	-1000000	-1000000	-1000000
820,40	-10,87	13,59	0,3908	-1000000	-1000000	-1000000
821,80	-10,82	13,61	0,3908	-1000000	-1000000	-1000000
823,20	-10,77	13,63	0,3908	-1000000	-1000000	-1000000
824,60	-10,72	13,65	0,3907	-1000000	-1000000	-1000000
826,00	-10,67	13,68	0,3907	-1000000	-1000000	-1000000
827,40	-10,62	13,70	0,3906	-1000000	-1000000	-1000000
828,80	-10,58	13,72	0,3906	-1000000	-1000000	-1000000
830,20	-10,53	13,75	0,3907	-1000000	-1000000	-1000000
831,60	-10,49	13,77	0,3906	-1000000	-1000000	-1000000
833,00	-10,44	13,79	0,3906	-1000000	-1000000	-1000000
834,40	-10,40	13,82	0,3908	-1000000	-1000000	-1000000
835,80	-10,35	13,84	0,3906	-1000000	-1000000	-1000000
837,20	-10,31	13,86	0,3907	-1000000	-1000000	-1000000
838,60	-10,27	13,89	0,3906	-1000000	-1000000	-1000000
840,00	-10,23	13,91	0,3907	-1000000	-1000000	-1000000
841,40	-10,18	13,93	0,3908	-1000000	-1000000	-1000000
842,80	-10,14	13,96	0,3908	-1000000	-1000000	-1000000
844,20	-10,10	13,98	0,3907	-1000000	-1000000	-1000000
845,60	-10,06	14,01	0,3908	-1000000	-1000000	-1000000
847,00	-10,02	14,03	0,3909	-1000000	-1000000	-1000000
848,40	-9,977	14,05	0,3909	-1000000	-1000000	-1000000
849,80	-9,935	14,08	0,3908	-1000000	-1000000	-1000000
851,20	-9,893	14,10	0,3908	-1000000	-1000000	-1000000
852,60	-9,851	14,12	0,3907	-1000000	-1000000	-1000000
854,00	-9,807	14,15	0,3907	-1000000	-1000000	-1000000
855,40	-9,765	14,17	0,3908	-1000000	-1000000	-1000000
856,80	-9,722	14,19	0,3907	-1000000	-1000000	-1000000
858,20	-9,677	14,22	0,3907	-1000000	-1000000	-1000000
859,60	-9,632	14,24	0,3908	-1000000	-1000000	-1000000
861,00	-9,587	14,26	0,3907	-1000000	-1000000	-1000000
862,40	-9,541	14,28	0,3908	-1000000	-1000000	-1000000
863,80	-9,496	14,31	0,3908	-1000000	-1000000	-1000000
865,20	-9,450	14,33	0,3906	-1000000	-1000000	-1000000
866,60	-9,404	14,36	0,3907	-1000000	-1000000	-1000000
868,00	-9,358	14,38	0,3906	-1000000	-1000000	-1000000
869,40	-9,314	14,40	0,3907	-1000000	-1000000	-1000000
870,80	-9,268	14,42	0,3907	-1000000	-1000000	-1000000
872,20	-9,224	14,45	0,3906	-1000000	-1000000	-1000000
873,60	-9,181	14,47	0,3906	-1000000	-1000000	-1000000
875,00	-9,139	14,49	0,3907	-1000000	-1000000	-1000000
876,40	-9,096	14,52	0,3906	-1000000	-1000000	-1000000
877,80	-9,050	14,54	0,3906	-1000000	-1000000	-1000000
879,20	-9,009	14,56	0,3907	-1000000	-1000000	-1000000
880,60	-8,969	14,59	0,3906	-1000000	-1000000	-1000000
882,00	-8,928	14,61	0,3906	-1000000	-1000000	-1000000
883,40	-8,887	14,63	0,3906	-1000000	-1000000	-1000000
884,80	-8,847	14,66	0,3907	-1000000	-1000000	-1000000
886,20	-8,806	14,68	0,3906	-1000000	-1000000	-1000000
887,60	-8,765	14,70	0,3906	-1000000	-1000000	-1000000
889,00	-8,724	14,73	0,3906	-1000000	-1000000	-1000000
890,40	-8,682	14,75	0,3905	-1000000	-1000000	-1000000
891,80	-8,641	14,77	0,3906	-1000000	-1000000	-1000000
893,20	-8,598	14,80	0,3905	-1000000	-1000000	-1000000
894,60	-8,556	14,82	0,3906	-1000000	-1000000	-1000000
896,00	-8,512	14,84	0,3907	-1000000	-1000000	-1000000
897,40	-8,469	14,87	0,3907	-1000000	-1000000	-1000000
898,80	-8,426	14,89	0,3906	-1000000	-1000000	-1000000
900,20	-8,382	14,91	0,3905	-1000000	-1000000	-1000000
901,60	-8,337	14,94	0,3907	-1000000	-1000000	-1000000
903,00	-8,291	14,96	0,3906	-1000000	-1000000	-1000000
904,40	-8,246	14,98	0,3906	-1000000	-1000000	-1000000
905,80	-8,202	15,01	0,3906	-1000000	-1000000	-1000000
907,20	-8,155	15,03	0,3905	-1000000	-1000000	-1000000
908,60	-8,109	15,05	0,3906	-1000000	-1000000	-1000000
910,00	-8,065	15,08	0,3905	-1000000	-1000000	-1000000
911,40	-8,021	15,10	0,3907	-1000000	-1000000	-1000000
912,80	-7,978	15,12	0,3905	-1000000	-1000000	-1000000
914,20	-7,936	15,15	0,3905	-1000000	-1000000	-1000000
915,60	-7,895	15,17	0,3906	-1000000	-1000000	-1000000
917,00	-7,855	15,19	0,3906	-1000000	-1000000	-1000000
918,40	-7,817	15,22	0,3905	-1000000	-1000000	-1000000
919,80	-7,776	15,24	0,3906	-1000000	-1000000	-1000000
921,20	-7,738	15,26	0,3904	-1000000	-1000000	-1000000
922,60	-7,700	15,29	0,3906	-1000000	-1000000	-1000000
924,00	-7,662	15,31	0,3905	-1000000	-1000000	-1000000
925,40	-7,624	15,33	0,3906	-1000000	-1000000	-1000000
926,80	-7,587	15,36	0,3905	-1000000	-1000000	-1000000
928,20	-7,553	15,38	0,3905	-1000000	-1000000	-1000000
929,60	-7,517	15,40	0,3905	-1000000	-1000000	-1000000
931,00	-7,484	15,43	0,3905	-1000000	-1000000	-1000000
932,40	-7,451	15,45	0,3906	-1000000	-1000000	-1000000
933,80	-7,417	15,47	0,3906	-1000000	-1000000	-1000000
935,20	-7,387	15,50	0,3906	-1000000	-1000000	-1000000
936,60	-7,356	15,52	0,3905	-1000000	-1000000	-1000000
938,00	-7,327	15,54	0,3905	-1000000	-1000000	-1000000
939,40	-7,299	15,57	0,3906	-1000000	-1000000	-1000000
940,80	-7,271	15,59	0,3905	-1000000	-1000000	-1000000
942,20	-7,243	15,61	0,3905	-1000000	-1000000	-1000000
943,60	-7,216	15,64	0,3905	-1000000	-1000000	-1000000
945,00	-7,189	15,66	0,3905	-1000000	-1000000	-1000000
946,40	-7,163	15,68	0,3905	-1000000	-1000000	-1000000
947,80	-7,137	15,71	0,3905	-1000000	-1000000	-1000000
949,20	-7,112	15,73	0,3906	-1000000	-1000000	-1000000
950,60	-7,088	15,75	0,3905	-1000000	-1000000	-1000000
952,00	-7,064	15,78	0,3905	-1000000	-1000000	-1000000
953,40	-7,040	15,80	0,3904	-1000000	-1000000	-1000000
954,80	-7,018	15,82	0,3904	-1000000	-1000000	-1000000
956,20	-6,994	15,85	0,3904	-1000000	-1000000	-1000000
957,60	-6,972	15,87	0,3905	-1000000	-1000000	-1000000
959,00	-6,950	15,89	0,3905	-1000000	-1000000	-1000000
960,40	-6,926	15,92	0,3906	-1000000	-1000000	-1000000
961,80	-6,902	15,94	0,3905	-1000000	-1000000	-1000000
963,20	-6,878	15,96	0,3904	-1000000	-1000000	-1000000
964,60	-6,855	15,99	0,3905	-1000000	-1000000	-1000000
966,00	-6,831	16,01	0,3904	-1000000	-1000000	-1000000
967,40	-6,806	16,04	0,3904	-1000000	-1000000	-1000000
968,80	-6,783	16,06	0,3904	-1000000	-1000000	-1000000
970,20	-6,760	16,08	0,3904	-1000000	-1000000	-1000000
971,60	-6,735	16,11	0,3905	-1000000	-1000000	-1000000
973,00	-6,712	16,13	0,3906	-1000000	-1000000	-1000000
974,40	-6,688	16,15	0,3907	-1000000	-1000000	-1000000
975,80	-6,666	16,18	0,3907	-1000000	-1000000	-1000000
977,20	-6,643	16,20	0,3907	-1000000	-1000000	-1000000
978,60	-6,622	16,22	0,3906	-1000000	-1000000	-1000000
980,00	-6,600	16,25	0,3907	-1000000	-1000000	-1000000
981,40	-6,578	16,27	0,3907	-1000000	-1000000	-1000000
982,80	-6,556	16,29	0,3906	-1000000	-1000000	-1000000
984,20	-6,534	16,32	0,3905	-1000000	-1000000	-1000000
985,60	-6,512	16,34	0,3906	-1000000	-1000000	-1000000
987,00	-6,492	16,36	0,3906	-1000000	-1000000	-1000000
988,40	-6,471	16,39	0,3906	-1000000	-1000000	-1000000
989,80	-6,451	16,41	0,3906	-1000000	-1000000	-1000000
991,20	-6,430	16,43	0,3905	-1000000	-1000000	-1000000
992,60	-6,409	16,46	0,3905	-1000000	-1000000	-1000000
994,00	-6,389	16,48	0,3907	-1000000	-1000000	-1000000
995,40	-6,369	16,50	0,3907	-1000000	-1000000	-1000000
996,80	-6,349	16,53	0,3907	-1000000	-1000000	-1000000
998,20	-6,330	16,55	0,3908	-1000000	-1000000	-1000000
999,60	-6,312	16,57	0,3909	-1000000	-1000000	-1000000
1001,0	-6,292	16,60	0,3909	-1000000	-1000000	-1000000
1002,4	-6,275	16,62	0,3909	-1000000	-1000000	-1000000
1003,8	-6,257	16,64	0,3910	-1000000	-1000000	-1000000
1005,2	-6,241	16,67	0,3910	-1000000	-1000000	-1000000
1006,6	-6,224	16,69	0,3911	-1000000	-1000000	-1000000
1008,0	-6,208	16,71	0,3910	-1000000	-1000000	-1000000
1009,4	-6,191	16,74	0,3909	-1000000	-1000000	-1000000
1010,8	-6,176	16,76	0,3908	-1000000	-1000000	-1000000
1012,2	-6,161	16,78	0,3909	-1000000	-1000000	-1000000
1013,6	-6,146	16,81	0,3908	-1000000	-1000000	-1000000
1015,0	-6,131	16,83	0,3907	-1000000	-1000000	-1000000
1016,4	-6,117	16,85	0,3907	-1000000	-1000000	-1000000
1017,8	-6,101	16,88	0,3906	-1000000	-1000000	-1000000
1019,2	-6,085	16,90	0,3906	-1000000	-1000000	-1000000
1020,6	-6,070	16,92	0,3905	-1000000	-1000000	-1000000
1022,0	-6,053	16,95	0,3906	-1000000	-1000000	-1000000
1023,4	-6,037	16,97	0,3905	-1000000	-1000000	-1000000
1024,8	-6,021	16,99	0,3905	-1000000	-1000000	-1000000
1026,2	-6,004	17,02	0,3905	-1000000	-1000000	-1000000
1027,6	-5,986	17,04	0,3905	-1000000	-1000000	-1000000
1029,0	-5,970	17,06	0,3905	-1000000	-1000000	-1000000
1030,4	-5,954	17,09	0,3906	-1000000	-1000000	-1000000
1031,8	-5,938	17,11	0,3907	-1000000	-1000000	-1000000
1033,2	-5,922	17,13	0,3908	-1000000	-1000000	-1000000
1034,6	-5,906	17,16	0,3909	-1000000	-1000000	-1000000
1036,0	-5,892	17,18	0,3911	-1000000	-1000000	-1000000
1037,4	-5,878	17,20	0,3911	-1000000	-1000000	-1000000
1038,8	-5,862	17,23	0,3912	-1000000	-1000000	-1000000
1040,2	-5,849	17,25	0,3913	-1000000	-1000000	-1000000
1041,6	-5,834	17,27	0,3912	-1000000	-1000000	-1000000
1043,0	-5,822	17,30	0,3912	-1000000	-1000000	-1000000
1044,4	-5,809	17,32	0,3914	-1000000	-1000000	-1000000
1045,8	-5,794	17,34	0,3914	-1000000	-1000000	-1000000
1047,2	-5,781	17,37	0,3914	-1000000	-1000000	-1000000
1048,6	-5,767	17,39	0,3915	-1000000	-1000000	-1000000
1050,0	-5,753	17,41	0,3915	-1000000	-1000000	-1000000
1051,4	-5,737	17,44	0,3914	-1000000	-1000000	-1000000
1052,8	-5,723	17,46	0,3915	-1000000	-1000000	-1000000
1054,2	-5,708	17,48	0,3916	-1000000	-1000000	-1000000
1055,6	-5,694	17,51	0,3914	-1000000	-1000000	-1000000
1057,0	-5,679	17,53	0,3915	-1000000	-1000000	-1000000
1058,4	-5,666	17,55	0,3915	-1000000	-1000000	-1000000
1059,8	-5,654	17,58	0,3914	-1000000	-1000000	-1000000
1061,2	-5,638	17,60	0,3914	-1000000	-1000000	-1000000
1062,6	-5,625	17,62	0,3915	-1000000	-1000000	-1000000
1064,0	-5,610	17,65	0,3914	-1000000	-1000000	-1000000
1065,4	-5,597	17,67	0,3914	-1000000	-1000000	-1000000
1066,8	-5,584	17,69	0,3914	-1000000	-1000000	-1000000
1068,2	-5,568	17,72	0,3914	-1000000	-1000000	-1000000
1069,6	-5,556	17,74	0,3914	-1000000	-1000000	-1000000
1071,0	-5,541	17,76	0,3915	-1000000	-1000000	-1000000
1072,4	-5,528	17,79	0,3915	-1000000	-1000000	-1000000
1073,8	-5,513	17,81	0,3914	-1000000	-1000000	-1000000
1075,2	-5,499	17,83	0,3915	-1000000	-1000000	-1000000
1076,6	-5,488	17,86	0,3915	-1000000	-1000000	-1000000
1078,0	-5,475	17,88	0,3914	-1000000	-1000000	-1000000
1079,4	-5,463	17,90	0,3915	-1000000	-1000000	-1000000
1080,8	-5,451	17,93	0,3917	-1000000	-1000000	-1000000
1082,2	-5,439	17,95	0,3916	-1000000	-1000000	-1000000
1083,6	-5,429	17,97	0,3916	-1000000	-1000000	-1000000
1085,0	-5,418	18,00	0,3917	-1000000	-1000000	-1000000
1086,4	-5,406	18,02	0,3918	-1000000	-1000000	-1000000
1087,8	-5,397	18,04	0,3917	-1000000	-1000000	-1000000
1089,2	-5,386	18,07	0,3918	-1000000	-1000000	-1000000
1090,6	-5,377	18,09	0,3917	-1000000	-1000000	-1000000
1092,0	-5,370	18,11	0,3918	-1000000	-1000000	-1000000
1093,4	-5,361	18,14	0,3918	-1000000	-1000000	-1000000
1094,8	-5,352	18,16	0,3918	-1000000	-1000000	-1000000
1096,2	-5,341	18,18	0,3919	-1000000	-1000000	-1000000
1097,6	-5,334	18,21	0,3919	-1000000	-1000000	-1000000
1099,0	-5,328	18,23	0,3919	-1000000	-1000000	-1000000
1100,4	-5,321	18,25	0,3919	-1000000	-1000000	-1000000
1101,8	-5,316	18,28	0,3919	-1000000	-1000000	-1000000
1103,2	-5,310	18,30	0,3918	-1000000	-1000000	-1000000
1104,6	-5,304	18,32	0,3919	-1000000	-1000000	-1000000
1106,0	-5,300	18,35	0,3919	-1000000	-1000000	-1000000
1107,4	-5,296	18,37	0,3919	-1000000	-1000000	-1000000
1108,8	-5,290	18,39	0,3919	-1000000	-1000000	-1000000
1110,2	-5,285	18,42	0,3918	-1000000	-1000000	-1000000
1111,6	-5,280	18,44	0,3918	-1000000	-1000000	-1000000
1113,0	-5,276	18,46	0,3918	-1000000	-1000000	-1000000
1114,4	-5,271	18,49	0,3919	-1000000	-1000000	-1000000
1115,8	-5,267	18,51	0,3919	-1000000	-1000000	-1000000
1117,2	-5,260	18,53	0,3919	-1000000	-1000000	-1000000
1118,6	-5,255	18,56	0,3918	-1000000	-1000000	-1000000
1120,0	-5,252	18,58	0,3919	-1000000	-1000000	-1000000
1121,4	-5,247	18,60	0,3919	-1000000	-1000000	-1000000
1122,8	-5,243	18,63	0,3918	-1000000	-1000000	-1000000
1124,2	-5,238	18,65	0,3918	-1000000	-1000000	-1000000
1125,6	-5,233	18,67	0,3918	-1000000	-1000000	-1000000
1127,0	-5,228	18,70	0,3918	-1000000	-1000000	-1000000
1128,4	-5,223	18,72	0,3917	-1000000	-1000000	-1000000
1129,8	-5,218	18,74	0,3918	-1000000	-1000000	-1000000
1131,2	-5,214	18,77	0,3917	-1000000	-1000000	-1000000
1132,6	-5,210	18,79	0,3917	-1000000	-1000000	-1000000
1134,0	-5,206	18,81	0,3918	-1000000	-1000000	-1000000
1135,4	-5,201	18,84	0,3916	-1000000	-1000000	-1000000
1136,8	-5,196	18,86	0,3917	-1000000	-1000000	-1000000
1138,2	-5,191	18,88	0,3917	-1000000	-1000000	-1000000
1139,6	-5,187	18,91	0,3916	-1000000	-1000000	-1000000
1141,0	-5,183	18,93	0,3917	-1000000	-1000000	-1000000
1142,4	-5,177	18,95	0,3917	-1000000	-1000000	-1000000
1143,8	-5,172	18,98	0,3917	-1000000	-1000000	-1000000
1145,2	-5,168	19,00	0,3917	-1000000	-1000000	-1000000
1146,6	-5,161	19,02	0,3917	-1000000	-1000000	-1000000
1148,0	-5,158	19,05	0,3918	-1000000	-1000000	-1000000
1149,4	-5,154	19,07	0,3921	-1000000	-1000000	-1000000
1150,8	-5,149	19,09	0,3920	-1000000	-1000000	-1000000
1152,2	-5,142	19,12	0,3920	-1000000	-1000000	-1000000
1153,6	-5,137	19,14	0,3920	-1000000	-1000000	-1000000
1155,0	-5,132	19,16	0,3921	-1000000	-1000000	-1000000
1156,4	-5,128	19,19	0,3922	-1000000	-1000000	-1000000
1157,8	-5,122	19,21	0,3921	-1000000	-1000000	-1000000
1159,2	-5,118	19,23	0,3921	-1000000	-1000000	-1000000
1160,6	-5,113	19,26	0,3922	-1000000	-1000000	-1000000
1162,0	-5,110	19,28	0,3922	-1000000	-1000000	-1000000
1163,4	-5,105	19,30	0,3922	-1000000	-1000000	-1000000
1164,8	-5,100	19,33	0,3922	-1000000	-1000000	-1000000
1166,2	-5,095	19,35	0,3922	-1000000	-1000000	-1000000
1167,6	-5,090	19,37	0,3923	-1000000	-1000000	-1000000
1169,0	-5,085	19,40	0,3924	-1000000	-1000000	-1000000
1170,4	-5,080	19,42	0,3922	-1000000	-1000000	-1000000
1171,8	-5,076	19,44	0,3923	-1000000	-1000000	-1000000
1173,2	-5,072	19,47	0,3923	-1000000	-1000000	-1000000
1174,6	-5,068	19,49	0,3924	-1000000	-1000000	-1000000
1176,0	-5,061	19,51	0,3923	-1000000	-1000000	-1000000
1177,4	-5,058	19,53	0,3924	-1000000	-1000000	-1000000
1178,8	-5,054	19,56	0,3923	-1000000	-1000000	-1000000
1180,2	-5,050	19,58	0,3923	-1000000	-1000000	-1000000
1181,6	-5,046	19,60	0,3923	-1000000	-1000000	-1000000
1183,0	-5,041	19,63	0,3923	-1000000	-1000000	-1000000
1184,4	-5,036	19,65	0,3923	-1000000	-1000000	-1000000
1185,8	-5,033	19,68	0,3923	-1000000	-1000000	-1000000
1187,2	-5,028	19,70	0,3922	-1000000	-1000000	-1000000
1188,6	-5,024	19,72	0,3922	-1000000	-1000000	-1000000
1190,0	-5,019	19,75	0,3923	-1000000	-1000000	-1000000
1191,4	-5,011	19,77	0,3924	-1000000	-1000000	-1000000
1192,8	-5,007	19,79	0,3922	-1000000	-1000000	-1000000
1194,2	-5,003	19,81	0,3922	-1000000	-1000000	-1000000
1195,6	-4,997	19,84	0,3922	-1000000	-1000000	-1000000
1197,0	-4,991	19,86	0,3922	-1000000	-1000000	-1000000
1198,4	-4,987	19,88	0,3921	-1000000	-1000000	-1000000
1199,8	-4,982	19,91	0,3920	-1000000	-1000000	-1000000
1201,2	-4,979	19,93	0,3920	-1000000	-1000000	-1000000
1202,5	-4,975	19,95	0,3920	-1000000	-1000000	-1000000