File: notebooks/experimental_tests/results/carbon_tensile_tests/F8.txt
Zeit  1 - Standardmessrate [s]	Kraft [kN]	Weg [mm]	DD1 [Prom]	PMX_1 CH 3-2 [µm/m]	PMX_1 CH 3-3 [mm]	PMX_1 CH 3-4 [mm]
0	-0,08270	0,00021	0,000	-1000000	-1000000	-1000000
0,8000	-0,08301	0,00010	0,00015	-1000000	-1000000	-1000000
1,600	-0,08319	-0,00019	0,000	-1000000	-1000000	-1000000
2,400	-0,08298	24,04	0,000	-1000000	-1000000	-1000000
3,200	-0,08267	24,03	0,000	-1000000	-1000000	-1000000
4,000	-0,08274	24,03	0,000	-1000000	-1000000	-1000000
4,800	-0,08228	24,03	0,000	-1000000	-1000000	-1000000
5,600	-0,08270	24,03	0,000	-1000000	-1000000	-1000000
6,400	-0,08255	24,03	0,000	-1000000	-1000000	-1000000
7,200	-0,08256	24,04	-0,00191	-1000000	-1000000	-1000000
8,000	-0,09363	24,05	-0,02317	-1000000	-1000000	-1000000
8,800	-0,1044	24,06	-0,04458	-1000000	-1000000	-1000000
9,600	-0,1153	24,08	-0,06476	-1000000	-1000000	-1000000
10,40	-0,1267	24,09	-0,08141	-1000000	-1000000	-1000000
11,20	-0,1358	24,10	-0,09557	-1000000	-1000000	-1000000
12,00	-0,1448	24,12	-0,1085	-1000000	-1000000	-1000000
12,80	-0,1542	24,13	-0,1207	-1000000	-1000000	-1000000
13,60	-0,1631	24,14	-0,1322	-1000000	-1000000	-1000000
14,40	-0,1721	24,16	-0,1433	-1000000	-1000000	-1000000
15,20	-0,1801	24,17	-0,1539	-1000000	-1000000	-1000000
16,00	-0,1889	24,18	-0,1641	-1000000	-1000000	-1000000
16,80	-0,1974	24,20	-0,1747	-1000000	-1000000	-1000000
17,60	-0,2072	24,21	-0,1845	-1000000	-1000000	-1000000
18,40	-0,2163	24,22	-0,1930	-1000000	-1000000	-1000000
19,20	-0,2248	24,24	-0,2011	-1000000	-1000000	-1000000
20,00	-0,2329	24,25	-0,2087	-1000000	-1000000	-1000000
20,80	-0,2381	24,26	-0,2138	-1000000	-1000000	-1000000
21,60	-0,2449	24,28	-0,2199	-1000000	-1000000	-1000000
22,40	-0,2496	24,29	-0,2250	-1000000	-1000000	-1000000
23,20	-0,2494	24,30	-0,2243	-1000000	-1000000	-1000000
24,00	-0,2366	24,32	-0,2114	-1000000	-1000000	-1000000
24,80	-0,2459	24,33	-0,03690	-1000000	-1000000	-1000000
25,60	-0,2467	24,34	3,341	-1000000	-1000000	-1000000
26,40	-0,2578	24,36	0,3764	-1000000	-1000000	-1000000
27,20	-0,2547	24,37	-0,2679	-1000000	-1000000	-1000000
28,00	-0,2611	24,39	-0,2829	-1000000	-1000000	-1000000
28,80	-0,2581	24,40	-0,2857	-1000000	-1000000	-1000000
29,60	-0,2582	24,41	-0,2888	-1000000	-1000000	-1000000
30,40	-0,2587	24,42	-0,2872	-1000000	-1000000	-1000000
31,20	-0,2618	24,44	-0,2925	-1000000	-1000000	-1000000
32,00	-0,2662	24,45	-0,2964	-1000000	-1000000	-1000000
32,80	-0,2687	24,46	-0,2979	-1000000	-1000000	-1000000
33,60	-0,2704	24,48	-0,3017	-1000000	-1000000	-1000000
34,40	-0,2735	24,49	-0,3018	-1000000	-1000000	-1000000
35,20	-0,2737	24,50	-0,3024	-1000000	-1000000	-1000000
36,00	-0,2737	24,52	-0,3040	-1000000	-1000000	-1000000
36,80	-0,2776	24,53	-0,3083	-1000000	-1000000	-1000000
37,60	-0,2831	24,55	-0,3151	-1000000	-1000000	-1000000
38,40	-0,2901	24,56	-0,3215	-1000000	-1000000	-1000000
39,20	-0,2974	24,57	-0,3264	-1000000	-1000000	-1000000
40,00	-0,3075	24,58	-0,3349	-1000000	-1000000	-1000000
40,80	-0,3193	24,60	-0,3432	-1000000	-1000000	-1000000
41,60	-0,3264	24,61	-0,3466	-1000000	-1000000	-1000000
42,40	-0,3352	24,62	-0,3504	-1000000	-1000000	-1000000
43,20	-0,3394	24,64	-0,3490	-1000000	-1000000	-1000000
44,00	-0,3425	24,65	-0,3470	-1000000	-1000000	-1000000
44,80	-0,3426	24,66	-0,3430	-1000000	-1000000	-1000000
45,60	-0,3468	24,68	-0,3428	-1000000	-1000000	-1000000
46,40	-0,3479	24,69	-0,3424	-1000000	-1000000	-1000000
47,20	-0,3505	24,70	-0,3417	-1000000	-1000000	-1000000
48,00	-0,3541	24,72	-0,3428	-1000000	-1000000	-1000000
48,80	-0,3624	24,73	-0,3499	-1000000	-1000000	-1000000
49,60	-0,3680	24,74	-0,3548	-1000000	-1000000	-1000000
50,40	-0,3810	24,76	-0,3663	-1000000	-1000000	-1000000
51,20	-0,3931	24,77	-0,3768	-1000000	-1000000	-1000000
52,00	-0,4006	24,78	-0,3817	-1000000	-1000000	-1000000
52,80	-0,4138	24,80	-0,3918	-1000000	-1000000	-1000000
53,60	-0,4254	24,81	-0,3997	-1000000	-1000000	-1000000
54,40	-0,4359	24,82	-0,4053	-1000000	-1000000	-1000000
55,20	-0,4421	24,84	-0,4060	-1000000	-1000000	-1000000
56,00	-0,4494	24,85	-0,4088	-1000000	-1000000	-1000000
56,80	-0,4606	24,86	-0,4147	-1000000	-1000000	-1000000
57,60	-0,4730	24,88	-0,4225	-1000000	-1000000	-1000000
58,40	-0,4835	24,89	-0,4289	-1000000	-1000000	-1000000
59,20	-0,4923	24,90	-0,4324	-1000000	-1000000	-1000000
60,00	-0,5065	24,92	-0,4426	-1000000	-1000000	-1000000
60,80	-0,5214	24,93	-0,4510	-1000000	-1000000	-1000000
61,60	-0,5355	24,94	-0,4587	-1000000	-1000000	-1000000
62,40	-0,5456	24,96	-0,4612	-1000000	-1000000	-1000000
63,20	-0,5603	24,97	-0,4689	-1000000	-1000000	-1000000
64,00	-0,5732	24,98	-0,4728	-1000000	-1000000	-1000000
64,80	-0,5208	25,00	-0,4009	-1000000	-1000000	-1000000
65,60	-0,5436	25,01	-0,4240	-1000000	-1000000	-1000000
66,40	-0,5644	25,02	-0,4413	-1000000	-1000000	-1000000
67,20	-0,5825	25,04	-0,4548	-1000000	-1000000	-1000000
68,00	-0,6001	25,05	-0,4664	-1000000	-1000000	-1000000
68,80	-0,6179	25,06	-0,4761	-1000000	-1000000	-1000000
69,60	-0,6342	25,08	-0,4846	-1000000	-1000000	-1000000
70,40	-0,6480	25,09	-0,4890	-1000000	-1000000	-1000000
71,20	-0,6663	25,10	-0,4968	-1000000	-1000000	-1000000
72,00	-0,6799	25,12	-0,5009	-1000000	-1000000	-1000000
72,80	-0,6977	25,13	-0,5077	-1000000	-1000000	-1000000
73,60	-0,7122	25,14	-0,5093	-1000000	-1000000	-1000000
74,40	-0,7296	25,16	-0,5145	-1000000	-1000000	-1000000
75,20	-0,7471	25,17	-0,5190	-1000000	-1000000	-1000000
76,00	-0,7646	25,18	-0,5215	-1000000	-1000000	-1000000
76,80	-0,7809	25,20	-0,5244	-1000000	-1000000	-1000000
77,60	-0,7950	25,21	-0,5229	-1000000	-1000000	-1000000
78,40	-0,8139	25,22	-0,5251	-1000000	-1000000	-1000000
79,20	-0,8315	25,24	-0,5263	-1000000	-1000000	-1000000
80,00	-0,8493	25,25	-0,5278	-1000000	-1000000	-1000000
80,80	-0,8635	25,26	-0,5260	-1000000	-1000000	-1000000
81,60	-0,8824	25,28	-0,5283	-1000000	-1000000	-1000000
82,40	-0,9000	25,29	-0,5300	-1000000	-1000000	-1000000
83,20	-0,9165	25,30	-0,5297	-1000000	-1000000	-1000000
84,00	-0,9335	25,32	-0,5317	-1000000	-1000000	-1000000
84,80	-0,9521	25,33	-0,5321	-1000000	-1000000	-1000000
85,60	-0,9668	25,34	-0,5293	-1000000	-1000000	-1000000
86,40	-0,9833	25,36	-0,5306	-1000000	-1000000	-1000000
87,20	-1,001	25,37	-0,5330	-1000000	-1000000	-1000000
88,00	-1,019	25,38	-0,5358	-1000000	-1000000	-1000000
88,80	-1,036	25,40	-0,5386	-1000000	-1000000	-1000000
89,60	-1,054	25,41	-0,5416	-1000000	-1000000	-1000000
90,40	-1,069	25,42	-0,5426	-1000000	-1000000	-1000000
91,20	-1,088	25,44	-0,5464	-1000000	-1000000	-1000000
92,00	-1,105	25,45	-0,5489	-1000000	-1000000	-1000000
92,80	-1,124	25,46	-0,5510	-1000000	-1000000	-1000000
93,60	-1,141	25,48	-0,5536	-1000000	-1000000	-1000000
94,40	-1,156	25,49	-0,5531	-1000000	-1000000	-1000000
95,20	-1,174	25,50	-0,5574	-1000000	-1000000	-1000000
96,00	-1,193	25,52	-0,5609	-1000000	-1000000	-1000000
96,80	-1,211	25,53	-0,5637	-1000000	-1000000	-1000000
97,60	-1,229	25,54	-0,5658	-1000000	-1000000	-1000000
98,40	-1,247	25,56	-0,5670	-1000000	-1000000	-1000000
99,20	-1,266	25,57	-0,5694	-1000000	-1000000	-1000000
100,00	-1,284	25,58	-0,5711	-1000000	-1000000	-1000000
100,80	-1,300	25,60	-0,5720	-1000000	-1000000	-1000000
101,60	-1,319	25,61	-0,5741	-1000000	-1000000	-1000000
102,40	-1,337	25,62	-0,5755	-1000000	-1000000	-1000000
103,20	-1,356	25,64	-0,5764	-1000000	-1000000	-1000000
104,00	-1,374	25,65	-0,5778	-1000000	-1000000	-1000000
104,80	-1,393	25,66	-0,5787	-1000000	-1000000	-1000000
105,60	-1,410	25,68	-0,5788	-1000000	-1000000	-1000000
106,40	-1,429	25,69	-0,5802	-1000000	-1000000	-1000000
107,20	-1,446	25,71	-0,5797	-1000000	-1000000	-1000000
108,00	-1,465	25,72	-0,5820	-1000000	-1000000	-1000000
108,80	-1,483	25,73	-0,5832	-1000000	-1000000	-1000000
109,60	-1,501	25,74	-0,5838	-1000000	-1000000	-1000000
110,40	-1,520	25,76	-0,5843	-1000000	-1000000	-1000000
111,20	-1,525	25,77	-0,4683	-1000000	-1000000	-1000000
112,00	-1,544	25,78	-0,4810	-1000000	-1000000	-1000000
112,80	-1,563	25,80	-0,4923	-1000000	-1000000	-1000000
113,60	-1,581	25,81	-0,5009	-1000000	-1000000	-1000000
114,40	-1,599	25,82	-0,5077	-1000000	-1000000	-1000000
115,20	-1,618	25,84	-0,5138	-1000000	-1000000	-1000000
116,00	-1,634	25,85	-0,5174	-1000000	-1000000	-1000000
116,80	-1,652	25,86	-0,5218	-1000000	-1000000	-1000000
117,60	-1,671	25,88	-0,5253	-1000000	-1000000	-1000000
118,40	-1,689	25,89	-0,5282	-1000000	-1000000	-1000000
119,20	-1,707	25,90	-0,5302	-1000000	-1000000	-1000000
120,00	-1,725	25,92	-0,5319	-1000000	-1000000	-1000000
120,80	-1,742	25,93	-0,5332	-1000000	-1000000	-1000000
121,60	-1,761	25,94	-0,5338	-1000000	-1000000	-1000000
122,40	-1,777	25,96	-0,5338	-1000000	-1000000	-1000000
123,20	-1,795	25,97	-0,5333	-1000000	-1000000	-1000000
124,00	-1,812	25,98	-0,5323	-1000000	-1000000	-1000000
124,80	-1,829	26,00	-0,5311	-1000000	-1000000	-1000000
125,60	-1,847	26,01	-0,5293	-1000000	-1000000	-1000000
126,40	-1,862	26,02	-0,5258	-1000000	-1000000	-1000000
127,20	-1,880	26,04	-0,5224	-1000000	-1000000	-1000000
128,00	-1,896	26,05	-0,5169	-1000000	-1000000	-1000000
128,80	-1,913	26,06	-0,5112	-1000000	-1000000	-1000000
129,60	-1,928	26,08	-0,5059	-1000000	-1000000	-1000000
130,40	-1,945	26,09	-0,5014	-1000000	-1000000	-1000000
131,20	-1,961	26,10	-0,4965	-1000000	-1000000	-1000000
132,00	-1,977	26,12	-0,4912	-1000000	-1000000	-1000000
132,80	-1,993	26,13	-0,4866	-1000000	-1000000	-1000000
133,60	-2,007	26,14	-0,4817	-1000000	-1000000	-1000000
134,40	-2,021	26,16	-0,4775	-1000000	-1000000	-1000000
135,20	-2,036	26,17	-0,4735	-1000000	-1000000	-1000000
136,00	-2,050	26,18	-0,4707	-1000000	-1000000	-1000000
136,80	-2,064	26,20	-0,4685	-1000000	-1000000	-1000000
137,60	-2,077	26,21	-0,4665	-1000000	-1000000	-1000000
138,40	-2,091	26,22	-0,4655	-1000000	-1000000	-1000000
139,20	-2,102	26,24	-0,4643	-1000000	-1000000	-1000000
140,00	-2,114	26,25	-0,4630	-1000000	-1000000	-1000000
140,80	-2,123	26,26	-0,4609	-1000000	-1000000	-1000000
141,60	-2,132	26,28	-0,4590	-1000000	-1000000	-1000000
142,40	-2,138	26,29	-0,4565	-1000000	-1000000	-1000000
143,20	-2,144	26,30	-0,4535	-1000000	-1000000	-1000000
144,00	-2,148	26,32	-0,4498	-1000000	-1000000	-1000000
144,80	-2,149	26,33	-0,4446	-1000000	-1000000	-1000000
145,60	-2,149	26,34	-0,4383	-1000000	-1000000	-1000000
146,40	-2,148	26,36	-0,4308	-1000000	-1000000	-1000000
147,20	-2,144	26,37	-0,4222	-1000000	-1000000	-1000000
148,00	-2,136	26,38	-0,4118	-1000000	-1000000	-1000000
148,80	-2,128	26,40	-0,4002	-1000000	-1000000	-1000000
149,60	-2,118	26,41	-0,3860	-1000000	-1000000	-1000000
150,40	-2,106	26,42	-0,3700	-1000000	-1000000	-1000000
151,20	-2,092	26,44	-0,3527	-1000000	-1000000	-1000000
152,00	-2,076	26,45	-0,3352	-1000000	-1000000	-1000000
152,80	-2,058	26,46	-0,3185	-1000000	-1000000	-1000000
153,60	-2,040	26,48	-0,3031	-1000000	-1000000	-1000000
154,40	-2,023	26,49	-0,2907	-1000000	-1000000	-1000000
155,20	-2,006	26,50	-0,2812	-1000000	-1000000	-1000000
156,00	-1,993	26,52	-0,2758	-1000000	-1000000	-1000000
156,80	-1,979	26,53	-0,2726	-1000000	-1000000	-1000000
157,60	-1,967	26,54	-0,2714	-1000000	-1000000	-1000000
158,40	-1,958	26,56	-0,2718	-1000000	-1000000	-1000000
159,20	-1,948	26,57	-0,2724	-1000000	-1000000	-1000000
160,00	-1,941	26,58	-0,2743	-1000000	-1000000	-1000000
160,80	-1,935	26,60	-0,2768	-1000000	-1000000	-1000000
161,60	-1,930	26,61	-0,2793	-1000000	-1000000	-1000000
162,40	-1,927	26,62	-0,2817	-1000000	-1000000	-1000000
163,20	-1,926	26,64	-0,2848	-1000000	-1000000	-1000000
164,00	-1,922	26,65	-0,2875	-1000000	-1000000	-1000000
164,80	-1,922	26,66	-0,2908	-1000000	-1000000	-1000000
165,60	-1,922	26,68	-0,2943	-1000000	-1000000	-1000000
166,40	-1,922	26,69	-0,2979	-1000000	-1000000	-1000000
167,20	-1,922	26,70	-0,3017	-1000000	-1000000	-1000000
168,00	-1,923	26,72	-0,3056	-1000000	-1000000	-1000000
168,80	-1,926	26,73	-0,3093	-1000000	-1000000	-1000000
169,60	-1,926	26,74	-0,3131	-1000000	-1000000	-1000000
170,40	-1,930	26,76	-0,3173	-1000000	-1000000	-1000000
171,20	-1,931	26,77	-0,3213	-1000000	-1000000	-1000000
172,00	-1,934	26,78	-0,3259	-1000000	-1000000	-1000000
172,80	-1,938	26,80	-0,3304	-1000000	-1000000	-1000000
173,60	-1,942	26,81	-0,3352	-1000000	-1000000	-1000000
174,40	-1,946	26,82	-0,3401	-1000000	-1000000	-1000000
175,20	-1,951	26,84	-0,3447	-1000000	-1000000	-1000000
176,00	-1,954	26,85	-0,3494	-1000000	-1000000	-1000000
176,80	-1,958	26,86	-0,3539	-1000000	-1000000	-1000000
177,60	-1,962	26,88	-0,3587	-1000000	-1000000	-1000000
178,40	-1,967	26,89	-0,3629	-1000000	-1000000	-1000000
179,20	-1,970	26,90	-0,3677	-1000000	-1000000	-1000000
180,00	-1,976	26,92	-0,3726	-1000000	-1000000	-1000000
180,80	-1,982	26,93	-0,3770	-1000000	-1000000	-1000000
181,60	-1,986	26,94	-0,3814	-1000000	-1000000	-1000000
182,40	-1,991	26,96	-0,3854	-1000000	-1000000	-1000000
183,20	-1,997	26,97	-0,3893	-1000000	-1000000	-1000000
184,00	-2,001	26,98	-0,3933	-1000000	-1000000	-1000000
184,80	-2,006	27,00	-0,3971	-1000000	-1000000	-1000000
185,60	-2,012	27,01	-0,4005	-1000000	-1000000	-1000000
186,40	-2,018	27,02	-0,4040	-1000000	-1000000	-1000000
187,20	-2,022	27,04	-0,4069	-1000000	-1000000	-1000000
188,00	-2,027	27,05	-0,4093	-1000000	-1000000	-1000000
188,80	-2,033	27,06	-0,4121	-1000000	-1000000	-1000000
189,60	-2,038	27,08	-0,4145	-1000000	-1000000	-1000000
190,40	-2,042	27,09	-0,4169	-1000000	-1000000	-1000000
191,20	-2,047	27,10	-0,4193	-1000000	-1000000	-1000000
192,00	-2,055	27,12	-0,4217	-1000000	-1000000	-1000000
192,80	-2,059	27,13	-0,4237	-1000000	-1000000	-1000000
193,60	-2,064	27,14	-0,4256	-1000000	-1000000	-1000000
194,40	-2,069	27,16	-0,4273	-1000000	-1000000	-1000000
195,20	-2,074	27,17	-0,4287	-1000000	-1000000	-1000000
196,00	-2,079	27,18	-0,4305	-1000000	-1000000	-1000000
196,80	-2,083	27,20	-0,4318	-1000000	-1000000	-1000000
197,60	-2,087	27,21	-0,4334	-1000000	-1000000	-1000000
198,40	-2,094	27,22	-0,4349	-1000000	-1000000	-1000000
199,20	-2,099	27,24	-0,4362	-1000000	-1000000	-1000000
200,00	-2,103	27,25	-0,4369	-1000000	-1000000	-1000000
200,80	-2,107	27,26	-0,4379	-1000000	-1000000	-1000000
201,60	-2,111	27,28	-0,4391	-1000000	-1000000	-1000000
202,40	-2,116	27,29	-0,4400	-1000000	-1000000	-1000000
203,20	-2,120	27,30	-0,4414	-1000000	-1000000	-1000000
204,00	-2,124	27,32	-0,4420	-1000000	-1000000	-1000000
204,80	-2,129	27,33	-0,4428	-1000000	-1000000	-1000000
205,60	-2,134	27,34	-0,4434	-1000000	-1000000	-1000000
206,40	-2,138	27,36	-0,4434	-1000000	-1000000	-1000000
207,20	-2,141	27,37	-0,4433	-1000000	-1000000	-1000000
208,00	-2,144	27,38	-0,4432	-1000000	-1000000	-1000000
208,80	-2,147	27,40	-0,4428	-1000000	-1000000	-1000000
209,60	-2,148	27,41	-0,4421	-1000000	-1000000	-1000000
210,40	-2,152	27,42	-0,4417	-1000000	-1000000	-1000000
211,20	-2,152	27,44	-0,4405	-1000000	-1000000	-1000000
212,00	-2,155	27,45	-0,4394	-1000000	-1000000	-1000000
212,80	-2,156	27,46	-0,4379	-1000000	-1000000	-1000000
213,60	-2,156	27,48	-0,4365	-1000000	-1000000	-1000000
214,40	-2,156	27,49	-0,4344	-1000000	-1000000	-1000000
215,20	-2,157	27,50	-0,4327	-1000000	-1000000	-1000000
216,00	-2,157	27,52	-0,4310	-1000000	-1000000	-1000000
216,80	-2,157	27,53	-0,4286	-1000000	-1000000	-1000000
217,60	-2,157	27,54	-0,4262	-1000000	-1000000	-1000000
218,40	-2,157	27,56	-0,4240	-1000000	-1000000	-1000000
219,20	-2,156	27,57	-0,4218	-1000000	-1000000	-1000000
220,00	-2,155	27,58	-0,4195	-1000000	-1000000	-1000000
220,80	-2,153	27,60	-0,4174	-1000000	-1000000	-1000000
221,60	-2,152	27,61	-0,4152	-1000000	-1000000	-1000000
222,40	-2,152	27,62	-0,4132	-1000000	-1000000	-1000000
223,20	-2,151	27,64	-0,4109	-1000000	-1000000	-1000000
224,00	-2,149	27,65	-0,4085	-1000000	-1000000	-1000000
224,80	-2,148	27,66	-0,4064	-1000000	-1000000	-1000000
225,60	-2,148	27,68	-0,4038	-1000000	-1000000	-1000000
226,40	-2,144	27,69	-0,4017	-1000000	-1000000	-1000000
227,20	-2,145	27,70	-0,3995	-1000000	-1000000	-1000000
228,00	-2,143	27,72	-0,3977	-1000000	-1000000	-1000000
228,80	-2,141	27,73	-0,3959	-1000000	-1000000	-1000000
229,60	-2,140	27,74	-0,3941	-1000000	-1000000	-1000000
230,40	-2,140	27,76	-0,3920	-1000000	-1000000	-1000000
231,20	-2,137	27,77	-0,3901	-1000000	-1000000	-1000000
232,00	-2,136	27,78	-0,3890	-1000000	-1000000	-1000000
232,80	-2,136	27,80	-0,3878	-1000000	-1000000	-1000000
233,60	-2,136	27,81	-0,3870	-1000000	-1000000	-1000000
234,40	-2,135	27,82	-0,3862	-1000000	-1000000	-1000000
235,20	-2,134	27,84	-0,3853	-1000000	-1000000	-1000000
236,00	-2,132	27,85	-0,3842	-1000000	-1000000	-1000000
236,80	-2,132	27,86	-0,3836	-1000000	-1000000	-1000000
237,60	-2,132	27,88	-0,3832	-1000000	-1000000	-1000000
238,40	-2,132	27,89	-0,3830	-1000000	-1000000	-1000000
239,20	-2,132	27,90	-0,3838	-1000000	-1000000	-1000000
240,00	-2,133	27,92	-0,3840	-1000000	-1000000	-1000000
240,80	-2,134	27,93	-0,3842	-1000000	-1000000	-1000000
241,60	-2,134	27,94	-0,3842	-1000000	-1000000	-1000000
242,40	-2,135	27,96	-0,3845	-1000000	-1000000	-1000000
243,20	-2,136	27,97	-0,3846	-1000000	-1000000	-1000000
244,00	-2,135	27,98	-0,3841	-1000000	-1000000	-1000000
244,80	-2,135	28,00	-0,3839	-1000000	-1000000	-1000000
245,60	-2,135	28,01	-0,3837	-1000000	-1000000	-1000000
246,40	-2,136	28,02	-0,3839	-1000000	-1000000	-1000000
247,20	-2,135	28,03	-0,3835	-1000000	-1000000	-1000000
248,00	-2,136	28,05	-0,3835	-1000000	-1000000	-1000000
248,80	-2,135	28,06	-0,3838	-1000000	-1000000	-1000000
249,60	-2,136	28,08	-0,3838	-1000000	-1000000	-1000000
250,40	-2,136	28,09	-0,3843	-1000000	-1000000	-1000000
251,20	-2,136	28,10	-0,3849	-1000000	-1000000	-1000000
252,00	-2,136	28,12	-0,3853	-1000000	-1000000	-1000000
252,80	-2,137	28,13	-0,3855	-1000000	-1000000	-1000000
253,60	-2,139	28,14	-0,3859	-1000000	-1000000	-1000000
254,40	-2,138	28,16	-0,3860	-1000000	-1000000	-1000000
255,20	-2,139	28,17	-0,3865	-1000000	-1000000	-1000000
256,00	-2,140	28,18	-0,3868	-1000000	-1000000	-1000000
256,80	-2,140	28,20	-0,3871	-1000000	-1000000	-1000000
257,60	-2,140	28,21	-0,3872	-1000000	-1000000	-1000000
258,40	-2,140	28,22	-0,3874	-1000000	-1000000	-1000000
259,20	-2,140	28,24	-0,3874	-1000000	-1000000	-1000000
260,00	-2,140	28,25	-0,3871	-1000000	-1000000	-1000000
260,80	-2,140	28,26	-0,3871	-1000000	-1000000	-1000000
261,60	-2,140	28,28	-0,3870	-1000000	-1000000	-1000000
262,40	-2,140	28,29	-0,3870	-1000000	-1000000	-1000000
263,20	-2,141	28,30	-0,3870	-1000000	-1000000	-1000000
264,00	-2,141	28,32	-0,3865	-1000000	-1000000	-1000000
264,80	-2,141	28,33	-0,3862	-1000000	-1000000	-1000000
265,60	-2,140	28,34	-0,3853	-1000000	-1000000	-1000000
266,40	-2,140	28,36	-0,3845	-1000000	-1000000	-1000000
267,20	-2,140	28,37	-0,3835	-1000000	-1000000	-1000000
268,00	-2,140	28,38	-0,3828	-1000000	-1000000	-1000000
268,80	-2,140	28,40	-0,3815	-1000000	-1000000	-1000000
269,60	-2,139	28,41	-0,3812	-1000000	-1000000	-1000000
270,40	-2,139	28,42	-0,3806	-1000000	-1000000	-1000000
271,20	-2,137	28,44	-0,3798	-1000000	-1000000	-1000000
272,00	-2,137	28,45	-0,3791	-1000000	-1000000	-1000000
272,80	-2,136	28,46	-0,3783	-1000000	-1000000	-1000000
273,60	-2,136	28,47	-0,3778	-1000000	-1000000	-1000000
274,40	-2,136	28,49	-0,3770	-1000000	-1000000	-1000000
275,20	-2,136	28,50	-0,3766	-1000000	-1000000	-1000000
276,00	-2,136	28,52	-0,3760	-1000000	-1000000	-1000000
276,80	-2,136	28,53	-0,3752	-1000000	-1000000	-1000000
277,60	-2,133	28,54	-0,3739	-1000000	-1000000	-1000000
278,40	-2,132	28,56	-0,3726	-1000000	-1000000	-1000000
279,20	-2,132	28,57	-0,3712	-1000000	-1000000	-1000000
280,00	-2,132	28,58	-0,3701	-1000000	-1000000	-1000000
280,80	-2,129	28,60	-0,3691	-1000000	-1000000	-1000000
281,60	-2,128	28,61	-0,3680	-1000000	-1000000	-1000000
282,40	-2,128	28,62	-0,3668	-1000000	-1000000	-1000000
283,20	-2,127	28,64	-0,3656	-1000000	-1000000	-1000000
284,00	-2,125	28,65	-0,3641	-1000000	-1000000	-1000000
284,80	-2,124	28,66	-0,3626	-1000000	-1000000	-1000000
285,60	-2,124	28,68	-0,3609	-1000000	-1000000	-1000000
286,40	-2,121	28,69	-0,3592	-1000000	-1000000	-1000000
287,20	-2,120	28,70	-0,3577	-1000000	-1000000	-1000000
288,00	-2,119	28,72	-0,3563	-1000000	-1000000	-1000000
288,80	-2,116	28,73	-0,3544	-1000000	-1000000	-1000000
289,60	-2,115	28,74	-0,3522	-1000000	-1000000	-1000000
290,40	-2,112	28,76	-0,3499	-1000000	-1000000	-1000000
291,20	-2,112	28,77	-0,3478	-1000000	-1000000	-1000000
292,00	-2,108	28,78	-0,3461	-1000000	-1000000	-1000000
292,80	-2,108	28,80	-0,3443	-1000000	-1000000	-1000000
293,60	-2,105	28,81	-0,3429	-1000000	-1000000	-1000000
294,40	-2,104	28,82	-0,3409	-1000000	-1000000	-1000000
295,20	-2,101	28,84	-0,3395	-1000000	-1000000	-1000000
296,00	-2,100	28,85	-0,3375	-1000000	-1000000	-1000000
296,80	-2,096	28,86	-0,3356	-1000000	-1000000	-1000000
297,60	-2,094	28,88	-0,3341	-1000000	-1000000	-1000000
298,40	-2,092	28,89	-0,3325	-1000000	-1000000	-1000000
299,20	-2,091	28,90	-0,3310	-1000000	-1000000	-1000000
300,00	-2,087	28,92	-0,3294	-1000000	-1000000	-1000000
300,80	-2,085	28,93	-0,3279	-1000000	-1000000	-1000000
301,60	-2,083	28,94	-0,3261	-1000000	-1000000	-1000000
302,40	-2,079	28,96	-0,3247	-1000000	-1000000	-1000000
303,20	-2,079	28,97	-0,3231	-1000000	-1000000	-1000000
304,00	-2,075	28,98	-0,3220	-1000000	-1000000	-1000000
304,80	-2,075	29,00	-0,3209	-1000000	-1000000	-1000000
305,60	-2,071	29,01	-0,3198	-1000000	-1000000	-1000000
306,40	-2,068	29,02	-0,3182	-1000000	-1000000	-1000000
307,20	-2,067	29,04	-0,3165	-1000000	-1000000	-1000000
308,00	-2,063	29,05	-0,3149	-1000000	-1000000	-1000000
308,80	-2,060	29,06	-0,3133	-1000000	-1000000	-1000000
309,60	-2,059	29,08	-0,3124	-1000000	-1000000	-1000000
310,40	-2,055	29,09	-0,3113	-1000000	-1000000	-1000000
311,20	-2,054	29,10	-0,3102	-1000000	-1000000	-1000000
312,00	-2,051	29,12	-0,3090	-1000000	-1000000	-1000000
312,80	-2,047	29,13	-0,3080	-1000000	-1000000	-1000000
313,60	-2,047	29,14	-0,3071	-1000000	-1000000	-1000000
314,40	-2,044	29,16	-0,3061	-1000000	-1000000	-1000000
315,20	-2,042	29,17	-0,3056	-1000000	-1000000	-1000000
316,00	-2,039	29,18	-0,3049	-1000000	-1000000	-1000000
316,80	-2,037	29,20	-0,3044	-1000000	-1000000	-1000000
317,60	-2,035	29,21	-0,3038	-1000000	-1000000	-1000000
318,40	-2,032	29,22	-0,3032	-1000000	-1000000	-1000000
319,20	-2,030	29,24	-0,3025	-1000000	-1000000	-1000000
320,00	-2,027	29,25	-0,3018	-1000000	-1000000	-1000000
320,80	-2,026	29,26	-0,3014	-1000000	-1000000	-1000000
321,60	-2,023	29,28	-0,3011	-1000000	-1000000	-1000000
322,40	-2,020	29,29	-0,3007	-1000000	-1000000	-1000000
323,20	-2,019	29,30	-0,3005	-1000000	-1000000	-1000000
324,00	-2,017	29,32	-0,3005	-1000000	-1000000	-1000000
324,80	-2,014	29,33	-0,3000	-1000000	-1000000	-1000000
325,60	-2,012	29,34	-0,2997	-1000000	-1000000	-1000000
326,40	-2,010	29,36	-0,2995	-1000000	-1000000	-1000000
327,20	-2,008	29,37	-0,2991	-1000000	-1000000	-1000000
328,00	-2,007	29,39	-0,2991	-1000000	-1000000	-1000000
328,80	-2,004	29,40	-0,2991	-1000000	-1000000	-1000000
329,60	-2,003	29,41	-0,2989	-1000000	-1000000	-1000000
330,40	-2,000	29,43	-0,2988	-1000000	-1000000	-1000000
331,20	-1,998	29,44	-0,2989	-1000000	-1000000	-1000000
332,00	-1,997	29,45	-0,2981	-1000000	-1000000	-1000000
332,80	-1,996	29,47	-0,2975	-1000000	-1000000	-1000000
333,60	-1,992	29,48	-0,2973	-1000000	-1000000	-1000000
334,40	-1,991	29,49	-0,2969	-1000000	-1000000	-1000000
335,20	-1,988	29,51	-0,2966	-1000000	-1000000	-1000000
336,00	-1,987	29,52	-0,2960	-1000000	-1000000	-1000000
336,80	-1,983	29,53	-0,2955	-1000000	-1000000	-1000000
337,60	-1,980	29,55	-0,2945	-1000000	-1000000	-1000000
338,40	-1,979	29,56	-0,2940	-1000000	-1000000	-1000000
339,20	-1,976	29,57	-0,2929	-1000000	-1000000	-1000000
340,00	-1,972	29,59	-0,2923	-1000000	-1000000	-1000000
340,80	-1,970	29,60	-0,2918	-1000000	-1000000	-1000000
341,60	-1,967	29,61	-0,2911	-1000000	-1000000	-1000000
342,40	-1,964	29,63	-0,2905	-1000000	-1000000	-1000000
343,20	-1,962	29,64	-0,2897	-1000000	-1000000	-1000000
344,00	-1,959	29,65	-0,2888	-1000000	-1000000	-1000000
344,80	-1,955	29,67	-0,2882	-1000000	-1000000	-1000000
345,60	-1,952	29,68	-0,2883	-1000000	-1000000	-1000000
346,40	-1,950	29,69	-0,2880	-1000000	-1000000	-1000000
347,20	-1,946	29,71	-0,2882	-1000000	-1000000	-1000000
348,00	-1,946	29,72	-0,2880	-1000000	-1000000	-1000000
348,80	-1,942	29,73	-0,2874	-1000000	-1000000	-1000000
349,60	-1,938	29,75	-0,2866	-1000000	-1000000	-1000000
350,40	-1,936	29,76	-0,2862	-1000000	-1000000	-1000000
351,20	-1,934	29,77	-0,2859	-1000000	-1000000	-1000000
352,00	-1,930	29,79	-0,2856	-1000000	-1000000	-1000000
352,80	-1,927	29,80	-0,2859	-1000000	-1000000	-1000000
353,60	-1,926	29,81	-0,2855	-1000000	-1000000	-1000000
354,40	-1,922	29,83	-0,2849	-1000000	-1000000	-1000000
355,20	-1,918	29,84	-0,2848	-1000000	-1000000	-1000000
356,00	-1,917	29,85	-0,2844	-1000000	-1000000	-1000000
356,80	-1,913	29,87	-0,2845	-1000000	-1000000	-1000000
357,60	-1,910	29,88	-0,2846	-1000000	-1000000	-1000000
358,40	-1,909	29,89	-0,2847	-1000000	-1000000	-1000000
359,20	-1,906	29,91	-0,2846	-1000000	-1000000	-1000000
360,00	-1,905	29,92	-0,2849	-1000000	-1000000	-1000000
360,80	-1,902	29,93	-0,2846	-1000000	-1000000	-1000000
361,60	-1,898	29,95	-0,2843	-1000000	-1000000	-1000000
362,40	-1,897	29,96	-0,2843	-1000000	-1000000	-1000000
363,20	-1,893	29,97	-0,2841	-1000000	-1000000	-1000000
364,00	-1,890	29,99	-0,2843	-1000000	-1000000	-1000000
364,80	-1,889	30,00	-0,2841	-1000000	-1000000	-1000000
365,60	-1,885	30,01	-0,2837	-1000000	-1000000	-1000000
366,40	-1,882	30,03	-0,2837	-1000000	-1000000	-1000000
367,20	-1,881	30,04	-0,2830	-1000000	-1000000	-1000000
368,00	-1,877	30,05	-0,2825	-1000000	-1000000	-1000000
368,80	-1,873	30,07	-0,2819	-1000000	-1000000	-1000000
369,60	-1,870	30,08	-0,2816	-1000000	-1000000	-1000000
370,40	-1,868	30,09	-0,2812	-1000000	-1000000	-1000000
371,20	-1,864	30,11	-0,2809	-1000000	-1000000	-1000000
372,00	-1,860	30,12	-0,2807	-1000000	-1000000	-1000000
372,80	-1,857	30,13	-0,2802	-1000000	-1000000	-1000000
373,60	-1,854	30,15	-0,2799	-1000000	-1000000	-1000000
374,40	-1,852	30,16	-0,2794	-1000000	-1000000	-1000000
375,20	-1,848	30,17	-0,2789	-1000000	-1000000	-1000000
376,00	-1,844	30,19	-0,2785	-1000000	-1000000	-1000000
376,80	-1,841	30,20	-0,2781	-1000000	-1000000	-1000000
377,60	-1,839	30,21	-0,2775	-1000000	-1000000	-1000000
378,40	-1,836	30,23	-0,2773	-1000000	-1000000	-1000000
379,20	-1,832	30,24	-0,2769	-1000000	-1000000	-1000000
380,00	-1,828	30,25	-0,2765	-1000000	-1000000	-1000000
380,80	-1,824	30,27	-0,2762	-1000000	-1000000	-1000000
381,60	-1,823	30,28	-0,2759	-1000000	-1000000	-1000000
382,40	-1,820	30,29	-0,2756	-1000000	-1000000	-1000000
383,20	-1,816	30,31	-0,2752	-1000000	-1000000	-1000000
384,00	-1,812	30,32	-0,2750	-1000000	-1000000	-1000000
384,80	-1,808	30,33	-0,2742	-1000000	-1000000	-1000000
385,60	-1,804	30,35	-0,2736	-1000000	-1000000	-1000000
386,40	-1,800	30,36	-0,2727	-1000000	-1000000	-1000000
387,20	-1,796	30,37	-0,2718	-1000000	-1000000	-1000000
388,00	-1,792	30,39	-0,2712	-1000000	-1000000	-1000000
388,80	-1,787	30,40	-0,2708	-1000000	-1000000	-1000000
389,60	-1,784	30,41	-0,2706	-1000000	-1000000	-1000000
390,40	-1,780	30,43	-0,2701	-1000000	-1000000	-1000000
391,20	-1,776	30,44	-0,2696	-1000000	-1000000	-1000000
392,00	-1,771	30,45	-0,2687	-1000000	-1000000	-1000000
392,80	-1,767	30,47	-0,2685	-1000000	-1000000	-1000000
393,60	-1,763	30,48	-0,2682	-1000000	-1000000	-1000000
394,40	-1,759	30,49	-0,2680	-1000000	-1000000	-1000000
395,20	-1,755	30,50	-0,2679	-1000000	-1000000	-1000000
396,00	-1,752	30,52	-0,2676	-1000000	-1000000	-1000000
396,80	-1,746	30,53	-0,2672	-1000000	-1000000	-1000000
397,60	-1,742	30,55	-0,2671	-1000000	-1000000	-1000000
398,40	-1,739	30,56	-0,2673	-1000000	-1000000	-1000000
399,20	-1,736	30,57	-0,2673	-1000000	-1000000	-1000000
400,00	-1,731	30,59	-0,2669	-1000000	-1000000	-1000000
400,80	-1,728	30,60	-0,2671	-1000000	-1000000	-1000000
401,60	-1,725	30,61	-0,2674	-1000000	-1000000	-1000000
402,40	-1,722	30,63	-0,2673	-1000000	-1000000	-1000000
403,20	-1,718	30,64	-0,2674	-1000000	-1000000	-1000000
404,00	-1,714	30,65	-0,2672	-1000000	-1000000	-1000000
404,80	-1,710	30,66	-0,2673	-1000000	-1000000	-1000000
405,60	-1,706	30,68	-0,2675	-1000000	-1000000	-1000000
406,40	-1,703	30,69	-0,2675	-1000000	-1000000	-1000000
407,20	-1,702	30,71	-0,2680	-1000000	-1000000	-1000000
408,00	-1,698	30,72	-0,2680	-1000000	-1000000	-1000000
408,80	-1,694	30,73	-0,2679	-1000000	-1000000	-1000000
409,60	-1,690	30,75	-0,2679	-1000000	-1000000	-1000000
410,40	-1,686	30,76	-0,2672	-1000000	-1000000	-1000000
411,20	-1,684	30,77	-0,2675	-1000000	-1000000	-1000000
412,00	-1,681	30,78	-0,2677	-1000000	-1000000	-1000000
412,80	-1,677	30,80	-0,2678	-1000000	-1000000	-1000000
413,60	-1,674	30,81	-0,2676	-1000000	-1000000	-1000000
414,40	-1,673	30,83	-0,2677	-1000000	-1000000	-1000000
415,20	-1,669	30,84	-0,2675	-1000000	-1000000	-1000000
416,00	-1,665	30,85	-0,2674	-1000000	-1000000	-1000000
416,80	-1,663	30,86	-0,2674	-1000000	-1000000	-1000000
417,60	-1,661	30,88	-0,2674	-1000000	-1000000	-1000000
418,40	-1,657	30,89	-0,2675	-1000000	-1000000	-1000000
419,20	-1,656	30,91	-0,2672	-1000000	-1000000	-1000000
420,00	-1,653	30,92	-0,2668	-1000000	-1000000	-1000000
420,80	-1,649	30,93	-0,2664	-1000000	-1000000	-1000000
421,60	-1,646	30,95	-0,2654	-1000000	-1000000	-1000000
422,40	-1,645	30,96	-0,2650	-1000000	-1000000	-1000000
423,20	-1,641	30,97	-0,2652	-1000000	-1000000	-1000000
424,00	-1,639	30,98	-0,2653	-1000000	-1000000	-1000000
424,80	-1,637	31,00	-0,2651	-1000000	-1000000	-1000000
425,60	-1,634	31,01	-0,2650	-1000000	-1000000	-1000000
426,40	-1,633	31,02	-0,2646	-1000000	-1000000	-1000000
427,20	-1,630	31,04	-0,2641	-1000000	-1000000	-1000000
428,00	-1,627	31,05	-0,2635	-1000000	-1000000	-1000000
428,80	-1,625	31,06	-0,2635	-1000000	-1000000	-1000000
429,60	-1,621	31,08	-0,2630	-1000000	-1000000	-1000000
430,40	-1,621	31,09	-0,2630	-1000000	-1000000	-1000000
431,20	-1,617	31,10	-0,2629	-1000000	-1000000	-1000000
432,00	-1,615	31,12	-0,2621	-1000000	-1000000	-1000000
432,80	-1,613	31,13	-0,2619	-1000000	-1000000	-1000000
433,60	-1,608	31,14	-0,2614	-1000000	-1000000	-1000000
434,40	-1,608	31,16	-0,2608	-1000000	-1000000	-1000000
435,20	-1,604	31,17	-0,2602	-1000000	-1000000	-1000000
436,00	-1,602	31,18	-0,2598	-1000000	-1000000	-1000000
436,80	-1,601	31,20	-0,2593	-1000000	-1000000	-1000000
437,60	-1,597	31,21	-0,2590	-1000000	-1000000	-1000000
438,40	-1,596	31,22	-0,2583	-1000000	-1000000	-1000000
439,20	-1,593	31,24	-0,2571	-1000000	-1000000	-1000000
440,00	-1,589	31,25	-0,2564	-1000000	-1000000	-1000000
440,80	-1,586	31,26	-0,2556	-1000000	-1000000	-1000000
441,60	-1,584	31,28	-0,2549	-1000000	-1000000	-1000000
442,40	-1,580	31,29	-0,2543	-1000000	-1000000	-1000000
443,20	-1,580	31,30	-0,2541	-1000000	-1000000	-1000000
444,00	-1,576	31,32	-0,2538	-1000000	-1000000	-1000000
444,80	-1,575	31,33	-0,2536	-1000000	-1000000	-1000000
445,60	-1,572	31,34	-0,2529	-1000000	-1000000	-1000000
446,40	-1,568	31,36	-0,2524	-1000000	-1000000	-1000000
447,20	-1,568	31,37	-0,2530	-1000000	-1000000	-1000000
448,00	-1,564	31,38	-0,2531	-1000000	-1000000	-1000000
448,80	-1,564	31,40	-0,2534	-1000000	-1000000	-1000000
449,60	-1,562	31,41	-0,2528	-1000000	-1000000	-1000000
450,40	-1,560	31,42	-0,2527	-1000000	-1000000	-1000000
451,20	-1,558	31,44	-0,2521	-1000000	-1000000	-1000000
452,00	-1,556	31,45	-0,2518	-1000000	-1000000	-1000000
452,80	-1,555	31,46	-0,2518	-1000000	-1000000	-1000000
453,60	-1,552	31,48	-0,2515	-1000000	-1000000	-1000000
454,40	-1,551	31,49	-0,2520	-1000000	-1000000	-1000000
455,20	-1,548	31,50	-0,2517	-1000000	-1000000	-1000000
456,00	-1,547	31,52	-0,2517	-1000000	-1000000	-1000000
456,80	-1,546	31,53	-0,2515	-1000000	-1000000	-1000000
457,60	-1,544	31,54	-0,2511	-1000000	-1000000	-1000000
458,40	-1,543	31,56	-0,2510	-1000000	-1000000	-1000000
459,20	-1,540	31,57	-0,2512	-1000000	-1000000	-1000000
460,00	-1,539	31,58	-0,2515	-1000000	-1000000	-1000000
460,80	-1,537	31,60	-0,2512	-1000000	-1000000	-1000000
461,60	-1,535	31,61	-0,2515	-1000000	-1000000	-1000000
462,40	-1,535	31,62	-0,2513	-1000000	-1000000	-1000000
463,20	-1,534	31,64	-0,2514	-1000000	-1000000	-1000000
464,00	-1,532	31,65	-0,2517	-1000000	-1000000	-1000000
464,80	-1,531	31,66	-0,2521	-1000000	-1000000	-1000000
465,60	-1,530	31,68	-0,2523	-1000000	-1000000	-1000000
466,40	-1,530	31,69	-0,2529	-1000000	-1000000	-1000000
467,20	-1,527	31,70	-0,2530	-1000000	-1000000	-1000000
468,00	-1,527	31,72	-0,2530	-1000000	-1000000	-1000000
468,80	-1,527	31,73	-0,2531	-1000000	-1000000	-1000000
469,60	-1,523	31,74	-0,2520	-1000000	-1000000	-1000000
470,40	-1,523	31,76	-0,2520	-1000000	-1000000	-1000000
471,20	-1,521	31,77	-0,2524	-1000000	-1000000	-1000000
472,00	-1,519	31,78	-0,2529	-1000000	-1000000	-1000000
472,80	-1,519	31,80	-0,2531	-1000000	-1000000	-1000000
473,60	-1,519	31,81	-0,2535	-1000000	-1000000	-1000000
474,40	-1,518	31,82	-0,2537	-1000000	-1000000	-1000000
475,20	-1,516	31,84	-0,2535	-1000000	-1000000	-1000000
476,00	-1,515	31,85	-0,2536	-1000000	-1000000	-1000000
476,80	-1,515	31,86	-0,2536	-1000000	-1000000	-1000000
477,60	-1,515	31,88	-0,2539	-1000000	-1000000	-1000000
478,40	-1,514	31,89	-0,2543	-1000000	-1000000	-1000000
479,20	-1,511	31,90	-0,2545	-1000000	-1000000	-1000000
480,00	-1,511	31,92	-0,2551	-1000000	-1000000	-1000000
480,80	-1,510	31,93	-0,2554	-1000000	-1000000	-1000000
481,60	-1,511	31,94	-0,2558	-1000000	-1000000	-1000000
482,40	-1,509	31,96	-0,2558	-1000000	-1000000	-1000000
483,20	-1,509	31,97	-0,2560	-1000000	-1000000	-1000000
484,00	-1,507	31,98	-0,2561	-1000000	-1000000	-1000000
484,80	-1,506	32,00	-0,2562	-1000000	-1000000	-1000000
485,60	-1,506	32,01	-0,2562	-1000000	-1000000	-1000000
486,40	-1,506	32,02	-0,2561	-1000000	-1000000	-1000000
487,20	-1,505	32,04	-0,2559	-1000000	-1000000	-1000000
488,00	-1,503	32,05	-0,2558	-1000000	-1000000	-1000000
488,80	-1,502	32,06	-0,2559	-1000000	-1000000	-1000000
489,60	-1,502	32,08	-0,2559	-1000000	-1000000	-1000000
490,40	-1,502	32,09	-0,2565	-1000000	-1000000	-1000000
491,20	-1,498	32,10	-0,2555	-1000000	-1000000	-1000000
492,00	-1,498	32,12	-0,2559	-1000000	-1000000	-1000000
492,80	-1,498	32,13	-0,2563	-1000000	-1000000	-1000000
493,60	-1,498	32,14	-0,2566	-1000000	-1000000	-1000000
494,40	-1,498	32,16	-0,2570	-1000000	-1000000	-1000000
495,20	-1,499	32,17	-0,2575	-1000000	-1000000	-1000000
496,00	-1,497	32,18	-0,2580	-1000000	-1000000	-1000000
496,80	-1,497	32,19	-0,2584	-1000000	-1000000	-1000000
497,60	-1,496	32,21	-0,2595	-1000000	-1000000	-1000000
498,40	-1,497	32,22	-0,2597	-1000000	-1000000	-1000000
499,20	-1,496	32,23	-0,2602	-1000000	-1000000	-1000000
500,00	-1,495	32,25	-0,2603	-1000000	-1000000	-1000000
500,80	-1,495	32,26	-0,2608	-1000000	-1000000	-1000000
501,60	-1,495	32,28	-0,2613	-1000000	-1000000	-1000000
502,40	-1,494	32,29	-0,2612	-1000000	-1000000	-1000000
503,20	-1,494	32,30	-0,2618	-1000000	-1000000	-1000000
504,00	-1,494	32,32	-0,2620	-1000000	-1000000	-1000000
504,80	-1,494	32,33	-0,2624	-1000000	-1000000	-1000000
505,60	-1,492	32,34	-0,2624	-1000000	-1000000	-1000000
506,40	-1,492	32,36	-0,2628	-1000000	-1000000	-1000000
507,20	-1,491	32,37	-0,2633	-1000000	-1000000	-1000000
508,00	-1,492	32,38	-0,2640	-1000000	-1000000	-1000000
508,80	-1,491	32,40	-0,2643	-1000000	-1000000	-1000000
509,60	-1,491	32,41	-0,2646	-1000000	-1000000	-1000000
510,40	-1,491	32,42	-0,2649	-1000000	-1000000	-1000000
511,20	-1,490	32,44	-0,2648	-1000000	-1000000	-1000000
512,00	-1,490	32,45	-0,2649	-1000000	-1000000	-1000000
512,80	-1,488	32,46	-0,2640	-1000000	-1000000	-1000000
513,60	-1,488	32,48	-0,2649	-1000000	-1000000	-1000000
514,40	-1,489	32,49	-0,2656	-1000000	-1000000	-1000000
515,20	-1,489	32,50	-0,2661	-1000000	-1000000	-1000000
516,00	-1,488	32,52	-0,2669	-1000000	-1000000	-1000000
516,80	-1,489	32,53	-0,2670	-1000000	-1000000	-1000000
517,60	-1,488	32,54	-0,2674	-1000000	-1000000	-1000000
518,40	-1,487	32,56	-0,2678	-1000000	-1000000	-1000000
519,20	-1,488	32,57	-0,2687	-1000000	-1000000	-1000000
520,00	-1,488	32,58	-0,2690	-1000000	-1000000	-1000000
520,80	-1,488	32,60	-0,2697	-1000000	-1000000	-1000000
521,60	-1,489	32,61	-0,2704	-1000000	-1000000	-1000000
522,40	-1,488	32,62	-0,2705	-1000000	-1000000	-1000000
523,20	-1,488	32,63	-0,2709	-1000000	-1000000	-1000000
524,00	-1,487	32,65	-0,2709	-1000000	-1000000	-1000000
524,80	-1,487	32,66	-0,2714	-1000000	-1000000	-1000000
525,60	-1,487	32,68	-0,2718	-1000000	-1000000	-1000000
526,40	-1,487	32,69	-0,2725	-1000000	-1000000	-1000000
527,20	-1,487	32,70	-0,2730	-1000000	-1000000	-1000000
528,00	-1,487	32,72	-0,2735	-1000000	-1000000	-1000000
528,80	-1,487	32,73	-0,2739	-1000000	-1000000	-1000000
529,60	-1,486	32,74	-0,2743	-1000000	-1000000	-1000000
530,40	-1,486	32,76	-0,2747	-1000000	-1000000	-1000000
531,20	-1,486	32,77	-0,2749	-1000000	-1000000	-1000000
532,00	-1,486	32,78	-0,2747	-1000000	-1000000	-1000000
532,80	-1,486	32,80	-0,2753	-1000000	-1000000	-1000000
533,60	-1,486	32,81	-0,2757	-1000000	-1000000	-1000000
534,40	-1,486	32,82	-0,2760	-1000000	-1000000	-1000000
535,20	-1,486	32,84	-0,2763	-1000000	-1000000	-1000000
536,00	-1,486	32,85	-0,2766	-1000000	-1000000	-1000000
536,80	-1,486	32,86	-0,2771	-1000000	-1000000	-1000000
537,60	-1,486	32,88	-0,2777	-1000000	-1000000	-1000000
538,40	-1,486	32,89	-0,2781	-1000000	-1000000	-1000000
539,20	-1,486	32,90	-0,2787	-1000000	-1000000	-1000000
540,00	-1,486	32,92	-0,2787	-1000000	-1000000	-1000000
540,80	-1,486	32,93	-0,2791	-1000000	-1000000	-1000000
541,60	-1,486	32,94	-0,2789	-1000000	-1000000	-1000000
542,40	-1,486	32,96	-0,2791	-1000000	-1000000	-1000000
543,20	-1,486	32,97	-0,2793	-1000000	-1000000	-1000000
544,00	-1,485	32,98	-0,2795	-1000000	-1000000	-1000000
544,80	-1,485	32,99	-0,2799	-1000000	-1000000	-1000000
545,60	-1,485	33,01	-0,2799	-1000000	-1000000	-1000000
546,40	-1,485	33,02	-0,2801	-1000000	-1000000	-1000000
547,20	-1,482	33,04	-0,2794	-1000000	-1000000	-1000000
548,00	-1,482	33,05	-0,2791	-1000000	-1000000	-1000000
548,80	-1,481	33,06	-0,2794	-1000000	-1000000	-1000000
549,60	-1,482	33,07	-0,2794	-1000000	-1000000	-1000000
550,40	-1,481	33,09	-0,2799	-1000000	-1000000	-1000000
551,20	-1,482	33,10	-0,2803	-1000000	-1000000	-1000000
552,00	-1,482	33,11	-0,2806	-1000000	-1000000	-1000000
552,80	-1,482	33,13	-0,2803	-1000000	-1000000	-1000000
553,60	-1,482	33,14	-0,2803	-1000000	-1000000	-1000000
554,40	-1,482	33,16	-0,2804	-1000000	-1000000	-1000000
555,20	-1,481	33,17	-0,2803	-1000000	-1000000	-1000000
556,00	-1,482	33,18	-0,2807	-1000000	-1000000	-1000000
556,80	-1,481	33,20	-0,2809	-1000000	-1000000	-1000000
557,60	-1,480	33,21	-0,2810	-1000000	-1000000	-1000000
558,40	-1,479	33,22	-0,2810	-1000000	-1000000	-1000000
559,20	-1,479	33,24	-0,2811	-1000000	-1000000	-1000000
560,00	-1,478	33,25	-0,2806	-1000000	-1000000	-1000000
560,80	-1,478	33,26	-0,2808	-1000000	-1000000	-1000000
561,60	-1,478	33,27	-0,2807	-1000000	-1000000	-1000000
562,40	-1,478	33,29	-0,2810	-1000000	-1000000	-1000000
563,20	-1,478	33,30	-0,2810	-1000000	-1000000	-1000000
564,00	-1,478	33,32	-0,2810	-1000000	-1000000	-1000000
564,80	-1,478	33,33	-0,2808	-1000000	-1000000	-1000000
565,60	-1,474	33,34	-0,2798	-1000000	-1000000	-1000000
566,40	-1,474	33,35	-0,2798	-1000000	-1000000	-1000000
567,20	-1,474	33,37	-0,2797	-1000000	-1000000	-1000000
568,00	-1,474	33,38	-0,2800	-1000000	-1000000	-1000000
568,80	-1,473	33,39	-0,2800	-1000000	-1000000	-1000000
569,60	-1,473	33,41	-0,2800	-1000000	-1000000	-1000000
570,40	-1,473	33,42	-0,2797	-1000000	-1000000	-1000000
571,20	-1,473	33,43	-0,2790	-1000000	-1000000	-1000000
572,00	-1,471	33,45	-0,2790	-1000000	-1000000	-1000000
572,80	-1,471	33,46	-0,2790	-1000000	-1000000	-1000000
573,60	-1,470	33,47	-0,2793	-1000000	-1000000	-1000000
574,40	-1,470	33,49	-0,2789	-1000000	-1000000	-1000000
575,20	-1,470	33,50	-0,2790	-1000000	-1000000	-1000000
576,00	-1,470	33,51	-0,2788	-1000000	-1000000	-1000000
576,80	-1,470	33,53	-0,2788	-1000000	-1000000	-1000000
577,60	-1,470	33,54	-0,2789	-1000000	-1000000	-1000000
578,40	-1,470	33,55	-0,2786	-1000000	-1000000	-1000000
579,20	-1,469	33,57	-0,2787	-1000000	-1000000	-1000000
580,00	-1,468	33,58	-0,2787	-1000000	-1000000	-1000000
580,80	-1,467	33,59	-0,2789	-1000000	-1000000	-1000000
581,60	-1,465	33,61	-0,2784	-1000000	-1000000	-1000000
582,40	-1,465	33,62	-0,2782	-1000000	-1000000	-1000000
583,20	-1,465	33,63	-0,2781	-1000000	-1000000	-1000000
584,00	-1,466	33,65	-0,2782	-1000000	-1000000	-1000000
584,80	-1,465	33,66	-0,2783	-1000000	-1000000	-1000000
585,60	-1,464	33,68	-0,2783	-1000000	-1000000	-1000000
586,40	-1,463	33,69	-0,2784	-1000000	-1000000	-1000000
587,20	-1,462	33,70	-0,2780	-1000000	-1000000	-1000000
588,00	-1,462	33,72	-0,2778	-1000000	-1000000	-1000000
588,80	-1,462	33,73	-0,2770	-1000000	-1000000	-1000000
589,60	-1,461	33,74	-0,2767	-1000000	-1000000	-1000000
590,40	-1,461	33,75	-0,2761	-1000000	-1000000	-1000000
591,20	-1,459	33,77	-0,2760	-1000000	-1000000	-1000000
592,00	-1,458	33,78	-0,2763	-1000000	-1000000	-1000000
592,80	-1,458	33,79	-0,2762	-1000000	-1000000	-1000000
593,60	-1,458	33,81	-0,2761	-1000000	-1000000	-1000000
594,40	-1,459	33,82	-0,2758	-1000000	-1000000	-1000000
595,20	-1,458	33,83	-0,2757	-1000000	-1000000	-1000000
596,00	-1,458	33,85	-0,2755	-1000000	-1000000	-1000000
596,80	-1,454	33,86	-0,2746	-1000000	-1000000	-1000000
597,60	-1,454	33,87	-0,2749	-1000000	-1000000	-1000000
598,40	-1,454	33,89	-0,2753	-1000000	-1000000	-1000000
599,20	-1,454	33,90	-0,2755	-1000000	-1000000	-1000000
600,00	-1,453	33,91	-0,2749	-1000000	-1000000	-1000000
600,80	-1,452	33,93	-0,2748	-1000000	-1000000	-1000000
601,60	-1,451	33,94	-0,2743	-1000000	-1000000	-1000000
602,40	-1,450	33,95	-0,2742	-1000000	-1000000	-1000000
603,20	-1,450	33,97	-0,2740	-1000000	-1000000	-1000000
604,00	-1,450	33,98	-0,2740	-1000000	-1000000	-1000000
604,80	-1,450	33,99	-0,2738	-1000000	-1000000	-1000000
605,60	-1,449	34,01	-0,2737	-1000000	-1000000	-1000000
606,40	-1,448	34,02	-0,2733	-1000000	-1000000	-1000000
607,20	-1,446	34,03	-0,2725	-1000000	-1000000	-1000000
608,00	-1,446	34,05	-0,2723	-1000000	-1000000	-1000000
608,80	-1,446	34,06	-0,2721	-1000000	-1000000	-1000000
609,60	-1,445	34,07	-0,2720	-1000000	-1000000	-1000000
610,40	-1,444	34,09	-0,2717	-1000000	-1000000	-1000000
611,20	-1,442	34,10	-0,2711	-1000000	-1000000	-1000000
612,00	-1,441	34,12	-0,2708	-1000000	-1000000	-1000000
612,80	-1,441	34,13	-0,2704	-1000000	-1000000	-1000000
613,60	-1,439	34,14	-0,2701	-1000000	-1000000	-1000000
614,40	-1,437	34,16	-0,2699	-1000000	-1000000	-1000000
615,20	-1,437	34,17	-0,2702	-1000000	-1000000	-1000000
616,00	-1,437	34,18	-0,2700	-1000000	-1000000	-1000000
616,80	-1,438	34,20	-0,2695	-1000000	-1000000	-1000000
617,60	-1,436	34,21	-0,2689	-1000000	-1000000	-1000000
618,40	-1,434	34,22	-0,2682	-1000000	-1000000	-1000000
619,20	-1,433	34,24	-0,2675	-1000000	-1000000	-1000000
620,00	-1,433	34,25	-0,2670	-1000000	-1000000	-1000000
620,80	-1,432	34,26	-0,2666	-1000000	-1000000	-1000000
621,60	-1,429	34,27	-0,2662	-1000000	-1000000	-1000000
622,40	-1,429	34,29	-0,2661	-1000000	-1000000	-1000000
623,20	-1,429	34,30	-0,2656	-1000000	-1000000	-1000000
624,00	-1,427	34,31	-0,2648	-1000000	-1000000	-1000000
624,80	-1,425	34,33	-0,2644	-1000000	-1000000	-1000000
625,60	-1,425	34,34	-0,2641	-1000000	-1000000	-1000000
626,40	-1,422	34,35	-0,2624	-1000000	-1000000	-1000000
627,20	-1,422	34,37	-0,2623	-1000000	-1000000	-1000000
628,00	-1,421	34,38	-0,2620	-1000000	-1000000	-1000000
628,80	-1,420	34,39	-0,2616	-1000000	-1000000	-1000000
629,60	-1,418	34,41	-0,2613	-1000000	-1000000	-1000000
630,40	-1,417	34,42	-0,2607	-1000000	-1000000	-1000000
631,20	-1,417	34,43	-0,2601	-1000000	-1000000	-1000000
632,00	-1,414	34,45	-0,2596	-1000000	-1000000	-1000000
632,80	-1,413	34,46	-0,2590	-1000000	-1000000	-1000000
633,60	-1,413	34,47	-0,2584	-1000000	-1000000	-1000000
634,40	-1,411	34,49	-0,2578	-1000000	-1000000	-1000000
635,20	-1,409	34,50	-0,2573	-1000000	-1000000	-1000000
636,00	-1,409	34,51	-0,2563	-1000000	-1000000	-1000000
636,80	-1,408	34,53	-0,2559	-1000000	-1000000	-1000000
637,60	-1,405	34,54	-0,2550	-1000000	-1000000	-1000000
638,40	-1,405	34,55	-0,2547	-1000000	-1000000	-1000000
639,20	-1,405	34,57	-0,2544	-1000000	-1000000	-1000000
640,00	-1,402	34,58	-0,2539	-1000000	-1000000	-1000000
640,80	-1,401	34,59	-0,2534	-1000000	-1000000	-1000000
641,60	-1,401	34,61	-0,2531	-1000000	-1000000	-1000000
642,40	-1,399	34,62	-0,2527	-1000000	-1000000	-1000000
643,20	-1,396	34,63	-0,2513	-1000000	-1000000	-1000000
644,00	-1,396	34,65	-0,2506	-1000000	-1000000	-1000000
644,80	-1,392	34,66	-0,2503	-1000000	-1000000	-1000000
645,60	-1,392	34,67	-0,2503	-1000000	-1000000	-1000000
646,40	-1,392	34,69	-0,2502	-1000000	-1000000	-1000000
647,20	-1,392	34,70	-0,2499	-1000000	-1000000	-1000000
648,00	-1,389	34,72	-0,2496	-1000000	-1000000	-1000000
648,80	-1,388	34,73	-0,2493	-1000000	-1000000	-1000000
649,60	-1,389	34,74	-0,2489	-1000000	-1000000	-1000000
650,40	-1,386	34,76	-0,2486	-1000000	-1000000	-1000000
651,20	-1,385	34,77	-0,2487	-1000000	-1000000	-1000000
652,00	-1,384	34,79	-0,2482	-1000000	-1000000	-1000000
652,80	-1,384	34,80	-0,2478	-1000000	-1000000	-1000000
653,60	-1,381	34,81	-0,2474	-1000000	-1000000	-1000000
654,40	-1,380	34,83	-0,2466	-1000000	-1000000	-1000000
655,20	-1,380	34,84	-0,2459	-1000000	-1000000	-1000000
656,00	-1,377	34,85	-0,2452	-1000000	-1000000	-1000000
656,80	-1,376	34,86	-0,2449	-1000000	-1000000	-1000000
657,60	-1,376	34,88	-0,2446	-1000000	-1000000	-1000000
658,40	-1,375	34,89	-0,2444	-1000000	-1000000	-1000000
659,20	-1,372	34,90	-0,2421	-1000000	-1000000	-1000000
660,00	-1,370	34,92	-0,2419	-1000000	-1000000	-1000000
660,80	-1,369	34,93	-0,2412	-1000000	-1000000	-1000000
661,60	-1,369	34,94	-0,2403	-1000000	-1000000	-1000000
662,40	-1,365	34,96	-0,2399	-1000000	-1000000	-1000000
663,20	-1,364	34,97	-0,2394	-1000000	-1000000	-1000000
664,00	-1,364	34,98	-0,2391	-1000000	-1000000	-1000000
664,80	-1,361	35,00	-0,2387	-1000000	-1000000	-1000000
665,60	-1,360	35,01	-0,2384	-1000000	-1000000	-1000000
666,40	-1,360	35,02	-0,2376	-1000000	-1000000	-1000000
667,20	-1,358	35,04	-0,2372	-1000000	-1000000	-1000000
668,00	-1,356	35,05	-0,2370	-1000000	-1000000	-1000000
668,80	-1,356	35,06	-0,2367	-1000000	-1000000	-1000000
669,60	-1,356	35,08	-0,2369	-1000000	-1000000	-1000000
670,40	-1,352	35,09	-0,2365	-1000000	-1000000	-1000000
671,20	-1,352	35,10	-0,2359	-1000000	-1000000	-1000000
672,00	-1,352	35,12	-0,2352	-1000000	-1000000	-1000000
672,80	-1,349	35,13	-0,2346	-1000000	-1000000	-1000000
673,60	-1,348	35,14	-0,2341	-1000000	-1000000	-1000000
674,40	-1,348	35,16	-0,2337	-1000000	-1000000	-1000000
675,20	-1,345	35,17	-0,2336	-1000000	-1000000	-1000000
676,00	-1,344	35,18	-0,2318	-1000000	-1000000	-1000000
676,80	-1,342	35,20	-0,2320	-1000000	-1000000	-1000000
677,60	-1,340	35,21	-0,2317	-1000000	-1000000	-1000000
678,40	-1,340	35,22	-0,2312	-1000000	-1000000	-1000000
679,20	-1,339	35,24	-0,2308	-1000000	-1000000	-1000000
680,00	-1,335	35,25	-0,2306	-1000000	-1000000	-1000000
680,80	-1,336	35,26	-0,2301	-1000000	-1000000	-1000000
681,60	-1,335	35,28	-0,2299	-1000000	-1000000	-1000000
682,40	-1,333	35,29	-0,2299	-1000000	-1000000	-1000000
683,20	-1,327	35,30	-0,2214	-1000000	-1000000	-1000000
684,00	-1,308	35,30	-0,2009	-1000000	-1000000	-1000000
684,80	-1,292	35,30	-0,1850	-1000000	-1000000	-1000000
685,50	-1,281	35,30	-0,1730	-1000000	-1000000	-1000000