File: notebooks/experimental_tests/results/carbon_tensile_tests/F9.txt
Zeit  1 - Standardmessrate [s]	Kraft [kN]	Weg [mm]	DD1 [Prom]	PMX_1 CH 3-2 [µm/m]	PMX_1 CH 3-3 [mm]	PMX_1 CH 3-4 [mm]
0	0,02771	-0,00022	0,00010	-1000000	-1000000	-1000000
0,6000	0,02755	0,00054	0,00020	-1000000	-1000000	-1000000
1,200	0,02759	0,00088	0,00027	-1000000	-1000000	-1000000
1,800	0,02814	0,00054	0,00041	-1000000	-1000000	-1000000
2,400	0,02801	0,00057	0,00041	-1000000	-1000000	-1000000
3,000	0,02774	0,00012	0,00061	-1000000	-1000000	-1000000
3,600	0,02782	0,00023	0,00081	-1000000	-1000000	-1000000
4,200	0,02781	0,00035	0,00084	-1000000	-1000000	-1000000
4,800	0,02766	0,00038	0,00084	-1000000	-1000000	-1000000
5,400	0,02749	-0,00038	0,00094	-1000000	-1000000	-1000000
6,000	0,02750	-0,00023	0,00103	-1000000	-1000000	-1000000
6,600	0,02737	-0,00041	0,00114	-1000000	-1000000	-1000000
7,200	0,02749	0,00056	0,00110	-1000000	-1000000	-1000000
7,800	0,02708	0,00053	0,00132	-1000000	-1000000	-1000000
8,400	0,02765	0,00022	0,00129	-1000000	-1000000	-1000000
9,000	0,02705	0,00130	0,00073	-1000000	-1000000	-1000000
9,600	0,02002	0,01230	-0,01019	-1000000	-1000000	-1000000
10,20	0,01483	0,02225	-0,02281	-1000000	-1000000	-1000000
10,80	0,00823	0,03189	-0,03415	-1000000	-1000000	-1000000
11,40	0,00300	0,04209	-0,04298	-1000000	-1000000	-1000000
12,00	-0,00267	0,05197	-0,04980	-1000000	-1000000	-1000000
12,60	-0,00928	0,06269	-0,05541	-1000000	-1000000	-1000000
13,20	-0,01753	0,07208	-0,06032	-1000000	-1000000	-1000000
13,80	-0,02179	0,08268	-0,06514	-1000000	-1000000	-1000000
14,40	-0,02626	0,09200	-0,06963	-1000000	-1000000	-1000000
15,00	-0,03062	0,1020	-0,07368	-1000000	-1000000	-1000000
15,60	-0,03504	0,1116	-0,07726	-1000000	-1000000	-1000000
16,20	-0,03899	0,1218	-0,08040	-1000000	-1000000	-1000000
16,80	-0,04301	0,1317	-0,08304	-1000000	-1000000	-1000000
17,40	-0,04640	0,1417	-0,08515	-1000000	-1000000	-1000000
18,00	-0,05023	0,1519	-0,08663	-1000000	-1000000	-1000000
18,60	-0,05347	0,1618	-0,08804	-1000000	-1000000	-1000000
19,20	-0,05386	0,1722	-0,08543	-1000000	-1000000	-1000000
19,80	-0,05394	0,1822	-0,08558	-1000000	-1000000	-1000000
20,40	-0,05772	0,1920	-0,08620	-1000000	-1000000	-1000000
21,00	-0,05864	0,2021	-0,08726	-1000000	-1000000	-1000000
21,60	-0,06211	0,2126	-0,08769	-1000000	-1000000	-1000000
22,20	-0,06206	0,2221	-0,08821	-1000000	-1000000	-1000000
22,80	-0,06522	0,2320	-0,08866	-1000000	-1000000	-1000000
23,40	-0,06602	0,2419	-0,08914	-1000000	-1000000	-1000000
24,00	-0,06921	0,2522	-0,08929	-1000000	-1000000	-1000000
24,60	-0,06973	0,2618	-0,08764	-1000000	-1000000	-1000000
25,20	-0,07075	0,2721	-0,08855	-1000000	-1000000	-1000000
25,80	-0,07344	0,2822	-0,08764	-1000000	-1000000	-1000000
26,40	-0,07494	0,2919	-0,08929	-1000000	-1000000	-1000000
27,00	-0,07783	0,3020	-0,08865	-1000000	-1000000	-1000000
27,60	-0,08042	0,3125	-0,08995	-1000000	-1000000	-1000000
28,20	-0,08220	0,3221	-0,08782	-1000000	-1000000	-1000000
28,80	-0,08338	0,3314	-0,08887	-1000000	-1000000	-1000000
29,40	-0,08670	0,3423	-0,08864	-1000000	-1000000	-1000000
30,00	-0,08643	0,3519	-0,08790	-1000000	-1000000	-1000000
30,60	-0,09038	0,3619	-0,08988	-1000000	-1000000	-1000000
31,20	-0,09412	0,3724	-0,09012	-1000000	-1000000	-1000000
31,80	-0,09782	0,3817	-0,09200	-1000000	-1000000	-1000000
32,40	-0,1003	0,3916	-0,09309	-1000000	-1000000	-1000000
33,00	-0,1023	0,4021	-0,09369	-1000000	-1000000	-1000000
33,60	-0,1069	0,4124	-0,09524	-1000000	-1000000	-1000000
34,20	-0,1108	0,4216	-0,09634	-1000000	-1000000	-1000000
34,80	-0,1137	0,4320	-0,09617	-1000000	-1000000	-1000000
35,40	-0,1166	0,4416	-0,09738	-1000000	-1000000	-1000000
36,00	-0,1191	0,4520	-0,09726	-1000000	-1000000	-1000000
36,60	-0,1231	0,4619	-0,09671	-1000000	-1000000	-1000000
37,20	-0,1269	0,4722	-0,09772	-1000000	-1000000	-1000000
37,80	-0,1278	0,4823	-0,09740	-1000000	-1000000	-1000000
38,40	-0,1321	0,4923	-0,09819	-1000000	-1000000	-1000000
39,00	-0,1359	0,5021	-0,09718	-1000000	-1000000	-1000000
39,60	-0,1393	0,5126	-0,09717	-1000000	-1000000	-1000000
40,20	-0,1405	0,5229	-0,09583	-1000000	-1000000	-1000000
40,80	-0,1431	0,5323	-0,09417	-1000000	-1000000	-1000000
41,40	-0,1473	0,5420	-0,09561	-1000000	-1000000	-1000000
42,00	-0,1504	0,5517	-0,09498	-1000000	-1000000	-1000000
42,60	-0,1518	0,5621	-0,09418	-1000000	-1000000	-1000000
43,20	-0,1557	0,5713	-0,09295	-1000000	-1000000	-1000000
43,80	-0,1563	0,5822	-0,09254	-1000000	-1000000	-1000000
44,40	-0,1601	0,5916	-0,09283	-1000000	-1000000	-1000000
45,00	-0,1633	0,6020	-0,09229	-1000000	-1000000	-1000000
45,60	-0,1652	0,6116	-0,09271	-1000000	-1000000	-1000000
46,20	-0,1681	0,6218	-0,09382	-1000000	-1000000	-1000000
46,80	-0,1720	0,6317	-0,09487	-1000000	-1000000	-1000000
47,40	-0,1760	0,6417	-0,09675	-1000000	-1000000	-1000000
48,00	-0,1806	0,6518	-0,09902	-1000000	-1000000	-1000000
48,60	-0,1862	0,6611	-0,1003	-1000000	-1000000	-1000000
49,20	-0,1899	0,6722	-0,1009	-1000000	-1000000	-1000000
49,80	-0,1941	0,6811	-0,1014	-1000000	-1000000	-1000000
50,40	-0,1994	0,6922	-0,1032	-1000000	-1000000	-1000000
51,00	-0,2045	0,7016	-0,1039	-1000000	-1000000	-1000000
51,60	-0,2096	0,7121	-0,1061	-1000000	-1000000	-1000000
52,20	-0,2166	0,7212	-0,1087	-1000000	-1000000	-1000000
52,80	-0,2210	0,7322	-0,1102	-1000000	-1000000	-1000000
53,40	-0,2263	0,7412	-0,1113	-1000000	-1000000	-1000000
54,00	-0,2321	0,7509	-0,1115	-1000000	-1000000	-1000000
54,60	-0,2394	0,7617	-0,1139	-1000000	-1000000	-1000000
55,20	-0,2399	0,7713	-0,1093	-1000000	-1000000	-1000000
55,80	-0,2449	0,7819	-0,1092	-1000000	-1000000	-1000000
56,40	-0,2454	0,7915	-0,1069	-1000000	-1000000	-1000000
57,00	-0,2420	0,8021	-0,09965	-1000000	-1000000	-1000000
57,60	-0,2466	0,8116	-0,1025	-1000000	-1000000	-1000000
58,20	-0,2445	0,8219	-0,09826	-1000000	-1000000	-1000000
58,80	-0,2455	0,8315	-0,09775	-1000000	-1000000	-1000000
59,40	-0,2464	0,8415	-0,09621	-1000000	-1000000	-1000000
60,00	-0,2495	0,8519	-0,09782	-1000000	-1000000	-1000000
60,60	-0,2495	0,8615	-0,09554	-1000000	-1000000	-1000000
61,20	-0,2530	0,8716	-0,09828	-1000000	-1000000	-1000000
61,80	-0,2567	0,8808	-0,1011	-1000000	-1000000	-1000000
62,40	-0,2591	0,8916	-0,1019	-1000000	-1000000	-1000000
63,00	-0,2483	0,9008	-0,08455	-1000000	-1000000	-1000000
63,60	-0,2571	0,9114	-0,09669	-1000000	-1000000	-1000000
64,20	-0,2616	0,9210	-0,09982	-1000000	-1000000	-1000000
64,80	-0,2598	0,9319	-0,09480	-1000000	-1000000	-1000000
65,40	-0,2586	0,9408	-0,09275	-1000000	-1000000	-1000000
66,00	-0,2610	0,9512	-0,09217	-1000000	-1000000	-1000000
66,60	-0,2639	0,9607	-0,09463	-1000000	-1000000	-1000000
67,20	-0,2676	0,9708	-0,09577	-1000000	-1000000	-1000000
67,80	-0,2706	0,9815	-0,09708	-1000000	-1000000	-1000000
68,40	-0,2670	0,9906	-0,09064	-1000000	-1000000	-1000000
69,00	-0,2736	1,001	-0,09423	-1000000	-1000000	-1000000
69,60	-0,2740	1,010	-0,09336	-1000000	-1000000	-1000000
70,20	-0,2751	1,021	-0,08956	-1000000	-1000000	-1000000
70,80	-0,2775	1,031	-0,08863	-1000000	-1000000	-1000000
71,40	-0,2773	1,041	-0,08733	-1000000	-1000000	-1000000
72,00	-0,2777	1,051	-0,08497	-1000000	-1000000	-1000000
72,60	-0,2781	1,061	-0,08353	-1000000	-1000000	-1000000
73,20	-0,2775	1,071	-0,08199	-1000000	-1000000	-1000000
73,80	-0,2852	1,081	-0,08711	-1000000	-1000000	-1000000
74,40	-0,2860	1,091	-0,08712	-1000000	-1000000	-1000000
75,00	-0,2921	1,101	-0,09201	-1000000	-1000000	-1000000
75,60	-0,2942	1,111	-0,09052	-1000000	-1000000	-1000000
76,20	-0,2982	1,121	-0,09466	-1000000	-1000000	-1000000
76,80	-0,3051	1,131	-0,1000	-1000000	-1000000	-1000000
77,40	-0,3071	1,141	-0,1004	-1000000	-1000000	-1000000
78,00	-0,3104	1,151	-0,1007	-1000000	-1000000	-1000000
78,60	-0,3108	1,161	-0,1007	-1000000	-1000000	-1000000
79,20	-0,3137	1,171	-0,1003	-1000000	-1000000	-1000000
79,80	-0,3148	1,181	-0,1001	-1000000	-1000000	-1000000
80,40	-0,3147	1,191	-0,09981	-1000000	-1000000	-1000000
81,00	-0,3146	1,202	-0,09951	-1000000	-1000000	-1000000
81,60	-0,3174	1,211	-0,09941	-1000000	-1000000	-1000000
82,20	-0,3184	1,221	-0,09957	-1000000	-1000000	-1000000
82,80	-0,3187	1,231	-0,1001	-1000000	-1000000	-1000000
83,40	-0,3218	1,242	-0,1023	-1000000	-1000000	-1000000
84,00	-0,3227	1,250	-0,1018	-1000000	-1000000	-1000000
84,60	-0,3234	1,261	-0,1035	-1000000	-1000000	-1000000
85,20	-0,3281	1,271	-0,1086	-1000000	-1000000	-1000000
85,80	-0,3398	1,281	-0,1221	-1000000	-1000000	-1000000
86,40	-0,3504	1,291	-0,1336	-1000000	-1000000	-1000000
87,00	-0,3634	1,301	-0,1452	-1000000	-1000000	-1000000
87,60	-0,3737	1,310	-0,1521	-1000000	-1000000	-1000000
88,20	-0,3796	1,321	-0,1540	-1000000	-1000000	-1000000
88,80	-0,3874	1,331	-0,1589	-1000000	-1000000	-1000000
89,40	-0,3958	1,341	-0,1637	-1000000	-1000000	-1000000
90,00	-0,4051	1,351	-0,1702	-1000000	-1000000	-1000000
90,60	-0,4169	1,361	-0,1783	-1000000	-1000000	-1000000
91,20	-0,4277	1,372	-0,1840	-1000000	-1000000	-1000000
91,80	-0,3736	1,382	-0,1087	-1000000	-1000000	-1000000
92,40	-0,3955	1,391	-0,1393	-1000000	-1000000	-1000000
93,00	-0,4144	1,401	-0,1619	-1000000	-1000000	-1000000
93,60	-0,4309	1,411	-0,1763	-1000000	-1000000	-1000000
94,20	-0,4444	1,420	-0,1860	-1000000	-1000000	-1000000
94,80	-0,4572	1,431	-0,1928	-1000000	-1000000	-1000000
95,40	-0,4710	1,441	-0,1983	-1000000	-1000000	-1000000
96,00	-0,4855	1,451	-0,2063	-1000000	-1000000	-1000000
96,60	-0,5005	1,461	-0,2134	-1000000	-1000000	-1000000
97,20	-0,5153	1,471	-0,2186	-1000000	-1000000	-1000000
97,80	-0,5322	1,481	-0,2263	-1000000	-1000000	-1000000
98,40	-0,5471	1,491	-0,2320	-1000000	-1000000	-1000000
99,00	-0,5622	1,501	-0,2361	-1000000	-1000000	-1000000
99,60	-0,5782	1,511	-0,2415	-1000000	-1000000	-1000000
100,20	-0,5929	1,521	-0,2447	-1000000	-1000000	-1000000
100,80	-0,6100	1,531	-0,2512	-1000000	-1000000	-1000000
101,40	-0,6243	1,541	-0,2545	-1000000	-1000000	-1000000
102,00	-0,6410	1,551	-0,2591	-1000000	-1000000	-1000000
102,60	-0,6561	1,561	-0,2612	-1000000	-1000000	-1000000
103,20	-0,6732	1,571	-0,2652	-1000000	-1000000	-1000000
103,80	-0,6888	1,580	-0,2675	-1000000	-1000000	-1000000
104,40	-0,7063	1,591	-0,2727	-1000000	-1000000	-1000000
105,00	-0,7242	1,601	-0,2752	-1000000	-1000000	-1000000
105,60	-0,7398	1,612	-0,2789	-1000000	-1000000	-1000000
106,20	-0,7580	1,621	-0,2828	-1000000	-1000000	-1000000
106,80	-0,7736	1,632	-0,2833	-1000000	-1000000	-1000000
107,40	-0,7929	1,641	-0,2858	-1000000	-1000000	-1000000
108,00	-0,8047	1,651	-0,2824	-1000000	-1000000	-1000000
108,60	-0,8245	1,661	-0,2889	-1000000	-1000000	-1000000
109,20	-0,8420	1,672	-0,2919	-1000000	-1000000	-1000000
109,80	-0,8607	1,681	-0,2946	-1000000	-1000000	-1000000
110,40	-0,8798	1,691	-0,2980	-1000000	-1000000	-1000000
111,00	-0,8964	1,702	-0,2982	-1000000	-1000000	-1000000
111,60	-0,9164	1,711	-0,3028	-1000000	-1000000	-1000000
112,20	-0,9357	1,721	-0,3055	-1000000	-1000000	-1000000
112,80	-0,9556	1,730	-0,3086	-1000000	-1000000	-1000000
113,40	-0,9738	1,742	-0,3096	-1000000	-1000000	-1000000
114,00	-0,9942	1,751	-0,3106	-1000000	-1000000	-1000000
114,60	-1,014	1,762	-0,3122	-1000000	-1000000	-1000000
115,20	-1,032	1,771	-0,3114	-1000000	-1000000	-1000000
115,80	-1,053	1,781	-0,3114	-1000000	-1000000	-1000000
116,40	-1,068	1,791	-0,3062	-1000000	-1000000	-1000000
117,00	-1,089	1,801	-0,3084	-1000000	-1000000	-1000000
117,60	-1,109	1,811	-0,3078	-1000000	-1000000	-1000000
118,20	-1,129	1,821	-0,3063	-1000000	-1000000	-1000000
118,80	-1,149	1,831	-0,3059	-1000000	-1000000	-1000000
119,40	-1,171	1,841	-0,3052	-1000000	-1000000	-1000000
120,00	-1,190	1,852	-0,3026	-1000000	-1000000	-1000000
120,60	-1,210	1,862	-0,2993	-1000000	-1000000	-1000000
121,20	-1,231	1,872	-0,2966	-1000000	-1000000	-1000000
121,80	-1,252	1,881	-0,2923	-1000000	-1000000	-1000000
122,40	-1,273	1,890	-0,2885	-1000000	-1000000	-1000000
123,00	-1,292	1,900	-0,2828	-1000000	-1000000	-1000000
123,60	-1,314	1,910	-0,2790	-1000000	-1000000	-1000000
124,20	-1,336	1,920	-0,2751	-1000000	-1000000	-1000000
124,80	-1,356	1,930	-0,2698	-1000000	-1000000	-1000000
125,40	-1,372	1,940	-0,2609	-1000000	-1000000	-1000000
126,00	-1,393	1,950	-0,2572	-1000000	-1000000	-1000000
126,60	-1,416	1,961	-0,2540	-1000000	-1000000	-1000000
127,20	-1,437	1,970	-0,2513	-1000000	-1000000	-1000000
127,80	-1,457	1,981	-0,2476	-1000000	-1000000	-1000000
128,40	-1,479	1,990	-0,2450	-1000000	-1000000	-1000000
129,00	-1,500	2,000	-0,2432	-1000000	-1000000	-1000000
129,60	-1,522	2,010	-0,2416	-1000000	-1000000	-1000000
130,20	-1,543	2,020	-0,2384	-1000000	-1000000	-1000000
130,80	-1,564	2,030	-0,2348	-1000000	-1000000	-1000000
131,40	-1,584	2,040	-0,2327	-1000000	-1000000	-1000000
132,00	-1,606	2,051	-0,2317	-1000000	-1000000	-1000000
132,60	-1,627	2,060	-0,2309	-1000000	-1000000	-1000000
133,20	-1,647	2,071	-0,2299	-1000000	-1000000	-1000000
133,80	-1,668	2,080	-0,2308	-1000000	-1000000	-1000000
134,40	-1,687	2,090	-0,2296	-1000000	-1000000	-1000000
135,00	-1,709	2,100	-0,2306	-1000000	-1000000	-1000000
135,60	-1,730	2,110	-0,2308	-1000000	-1000000	-1000000
136,20	-1,752	2,120	-0,2302	-1000000	-1000000	-1000000
136,80	-1,772	2,130	-0,2289	-1000000	-1000000	-1000000
137,40	-1,793	2,141	-0,2289	-1000000	-1000000	-1000000
138,00	-1,816	2,150	-0,2294	-1000000	-1000000	-1000000
138,60	-1,837	2,161	-0,2298	-1000000	-1000000	-1000000
139,20	-1,859	2,171	-0,2296	-1000000	-1000000	-1000000
139,80	-1,881	2,181	-0,2289	-1000000	-1000000	-1000000
140,40	-1,904	2,190	-0,2273	-1000000	-1000000	-1000000
141,00	-1,926	2,201	-0,2280	-1000000	-1000000	-1000000
141,60	-1,948	2,210	-0,2277	-1000000	-1000000	-1000000
142,20	-1,970	2,221	-0,2272	-1000000	-1000000	-1000000
142,80	-1,993	2,231	-0,2258	-1000000	-1000000	-1000000
143,40	-2,013	2,241	-0,2254	-1000000	-1000000	-1000000
144,00	-2,036	2,251	-0,2258	-1000000	-1000000	-1000000
144,60	-2,058	2,260	-0,2245	-1000000	-1000000	-1000000
145,20	-2,081	2,271	-0,2242	-1000000	-1000000	-1000000
145,80	-2,103	2,280	-0,2243	-1000000	-1000000	-1000000
146,40	-2,125	2,291	-0,2241	-1000000	-1000000	-1000000
147,00	-2,146	2,300	-0,2235	-1000000	-1000000	-1000000
147,60	-2,167	2,311	-0,2230	-1000000	-1000000	-1000000
148,20	-2,190	2,321	-0,2244	-1000000	-1000000	-1000000
148,80	-2,213	2,331	-0,2244	-1000000	-1000000	-1000000
149,40	-2,235	2,341	-0,2238	-1000000	-1000000	-1000000
150,00	-2,259	2,351	-0,2226	-1000000	-1000000	-1000000
150,60	-2,281	2,361	-0,2213	-1000000	-1000000	-1000000
151,20	-2,304	2,371	-0,2199	-1000000	-1000000	-1000000
151,80	-2,325	2,381	-0,2172	-1000000	-1000000	-1000000
152,40	-2,348	2,391	-0,2172	-1000000	-1000000	-1000000
153,00	-2,371	2,402	-0,2167	-1000000	-1000000	-1000000
153,60	-2,394	2,411	-0,2159	-1000000	-1000000	-1000000
154,20	-2,417	2,421	-0,2145	-1000000	-1000000	-1000000
154,80	-2,440	2,431	-0,2131	-1000000	-1000000	-1000000
155,40	-2,463	2,441	-0,2129	-1000000	-1000000	-1000000
156,00	-2,486	2,450	-0,2115	-1000000	-1000000	-1000000
156,60	-2,508	2,461	-0,2115	-1000000	-1000000	-1000000
157,20	-2,530	2,471	-0,2114	-1000000	-1000000	-1000000
157,80	-2,554	2,481	-0,2109	-1000000	-1000000	-1000000
158,40	-2,576	2,491	-0,2103	-1000000	-1000000	-1000000
159,00	-2,596	2,501	-0,2080	-1000000	-1000000	-1000000
159,60	-2,618	2,511	-0,2079	-1000000	-1000000	-1000000
160,20	-2,638	2,520	-0,2047	-1000000	-1000000	-1000000
160,80	-2,655	2,531	-0,2043	-1000000	-1000000	-1000000
161,40	-2,678	2,541	-0,2065	-1000000	-1000000	-1000000
162,00	-2,700	2,551	-0,2076	-1000000	-1000000	-1000000
162,60	-2,723	2,561	-0,2074	-1000000	-1000000	-1000000
163,20	-2,744	2,571	-0,2051	-1000000	-1000000	-1000000
163,80	-2,766	2,580	-0,2040	-1000000	-1000000	-1000000
164,40	-2,789	2,591	-0,2034	-1000000	-1000000	-1000000
165,00	-2,812	2,601	-0,2032	-1000000	-1000000	-1000000
165,60	-2,834	2,610	-0,2026	-1000000	-1000000	-1000000
166,20	-2,853	2,621	-0,1992	-1000000	-1000000	-1000000
166,80	-2,873	2,630	-0,1975	-1000000	-1000000	-1000000
167,40	-2,895	2,640	-0,1983	-1000000	-1000000	-1000000
168,00	-2,918	2,650	-0,1990	-1000000	-1000000	-1000000
168,60	-2,940	2,661	-0,1993	-1000000	-1000000	-1000000
169,20	-2,962	2,669	-0,1973	-1000000	-1000000	-1000000
169,80	-2,985	2,680	-0,1975	-1000000	-1000000	-1000000
170,40	-3,008	2,690	-0,1965	-1000000	-1000000	-1000000
171,00	-3,032	2,700	-0,1960	-1000000	-1000000	-1000000
171,60	-3,055	2,710	-0,1956	-1000000	-1000000	-1000000
172,20	-3,078	2,720	-0,1956	-1000000	-1000000	-1000000
172,80	-3,101	2,730	-0,1944	-1000000	-1000000	-1000000
173,40	-3,124	2,740	-0,1943	-1000000	-1000000	-1000000
174,00	-3,145	2,750	-0,1936	-1000000	-1000000	-1000000
174,60	-3,168	2,760	-0,1946	-1000000	-1000000	-1000000
175,20	-3,190	2,771	-0,1955	-1000000	-1000000	-1000000
175,80	-3,212	2,780	-0,1966	-1000000	-1000000	-1000000
176,40	-3,234	2,791	-0,1972	-1000000	-1000000	-1000000
177,00	-3,256	2,800	-0,1969	-1000000	-1000000	-1000000
177,60	-3,277	2,811	-0,1972	-1000000	-1000000	-1000000
178,20	-3,300	2,821	-0,1984	-1000000	-1000000	-1000000
178,80	-3,322	2,831	-0,1980	-1000000	-1000000	-1000000
179,40	-3,346	2,841	-0,1989	-1000000	-1000000	-1000000
180,00	-3,369	2,850	-0,1987	-1000000	-1000000	-1000000
180,60	-3,392	2,861	-0,1980	-1000000	-1000000	-1000000
181,20	-3,415	2,870	-0,1978	-1000000	-1000000	-1000000
181,80	-3,439	2,881	-0,1979	-1000000	-1000000	-1000000
182,40	-3,462	2,890	-0,1966	-1000000	-1000000	-1000000
183,00	-3,485	2,901	-0,1983	-1000000	-1000000	-1000000
183,60	-3,510	2,910	-0,1993	-1000000	-1000000	-1000000
184,20	-3,535	2,920	-0,2001	-1000000	-1000000	-1000000
184,80	-3,559	2,930	-0,2001	-1000000	-1000000	-1000000
185,40	-3,583	2,940	-0,1990	-1000000	-1000000	-1000000
186,00	-3,606	2,950	-0,1993	-1000000	-1000000	-1000000
186,60	-3,630	2,960	-0,1994	-1000000	-1000000	-1000000
187,20	-3,654	2,970	-0,1993	-1000000	-1000000	-1000000
187,80	-3,676	2,980	-0,1985	-1000000	-1000000	-1000000
188,40	-3,699	2,991	-0,1989	-1000000	-1000000	-1000000
189,00	-3,720	3,000	-0,1972	-1000000	-1000000	-1000000
189,60	-3,744	3,011	-0,1988	-1000000	-1000000	-1000000
190,20	-3,768	3,020	-0,1998	-1000000	-1000000	-1000000
190,80	-3,793	3,030	-0,1996	-1000000	-1000000	-1000000
191,40	-3,817	3,040	-0,1984	-1000000	-1000000	-1000000
192,00	-3,841	3,051	-0,1980	-1000000	-1000000	-1000000
192,60	-3,865	3,060	-0,1960	-1000000	-1000000	-1000000
193,20	-3,878	3,070	-0,1839	-1000000	-1000000	-1000000
193,80	-3,902	3,081	-0,1861	-1000000	-1000000	-1000000
194,40	-3,926	3,090	-0,1857	-1000000	-1000000	-1000000
195,00	-3,949	3,101	-0,1864	-1000000	-1000000	-1000000
195,60	-3,973	3,110	-0,1877	-1000000	-1000000	-1000000
196,20	-3,998	3,121	-0,1888	-1000000	-1000000	-1000000
196,80	-4,023	3,130	-0,1900	-1000000	-1000000	-1000000
197,40	-4,048	3,140	-0,1898	-1000000	-1000000	-1000000
198,00	-4,071	3,150	-0,1869	-1000000	-1000000	-1000000
198,60	-4,095	3,160	-0,1890	-1000000	-1000000	-1000000
199,20	-4,119	3,170	-0,1892	-1000000	-1000000	-1000000
199,80	-4,145	3,180	-0,1896	-1000000	-1000000	-1000000
200,40	-4,168	3,190	-0,1899	-1000000	-1000000	-1000000
201,00	-4,194	3,199	-0,1903	-1000000	-1000000	-1000000
201,60	-4,216	3,210	-0,1884	-1000000	-1000000	-1000000
202,20	-4,241	3,219	-0,1903	-1000000	-1000000	-1000000
202,80	-4,266	3,230	-0,1919	-1000000	-1000000	-1000000
203,40	-4,290	3,240	-0,1918	-1000000	-1000000	-1000000
204,00	-4,315	3,250	-0,1915	-1000000	-1000000	-1000000
204,60	-4,341	3,260	-0,1909	-1000000	-1000000	-1000000
205,20	-4,365	3,270	-0,1897	-1000000	-1000000	-1000000
205,80	-4,389	3,279	-0,1869	-1000000	-1000000	-1000000
206,40	-4,415	3,289	-0,1881	-1000000	-1000000	-1000000
207,00	-4,442	3,300	-0,1888	-1000000	-1000000	-1000000
207,60	-4,468	3,309	-0,1887	-1000000	-1000000	-1000000
208,20	-4,493	3,320	-0,1880	-1000000	-1000000	-1000000
208,80	-4,521	3,330	-0,1902	-1000000	-1000000	-1000000
209,40	-4,552	3,339	-0,1899	-1000000	-1000000	-1000000
210,00	-4,576	3,349	-0,1868	-1000000	-1000000	-1000000
210,60	-4,603	3,359	-0,1867	-1000000	-1000000	-1000000
211,20	-4,630	3,370	-0,1864	-1000000	-1000000	-1000000
211,80	-4,658	3,380	-0,1859	-1000000	-1000000	-1000000
212,40	-4,684	3,390	-0,1858	-1000000	-1000000	-1000000
213,00	-4,708	3,400	-0,1828	-1000000	-1000000	-1000000
213,60	-4,737	3,410	-0,1846	-1000000	-1000000	-1000000
214,20	-4,764	3,420	-0,1846	-1000000	-1000000	-1000000
214,80	-4,791	3,430	-0,1839	-1000000	-1000000	-1000000
215,40	-4,818	3,440	-0,1831	-1000000	-1000000	-1000000
216,00	-4,843	3,450	-0,1810	-1000000	-1000000	-1000000
216,60	-4,870	3,460	-0,1822	-1000000	-1000000	-1000000
217,20	-4,898	3,470	-0,1829	-1000000	-1000000	-1000000
217,80	-4,925	3,480	-0,1817	-1000000	-1000000	-1000000
218,40	-4,952	3,489	-0,1815	-1000000	-1000000	-1000000
219,00	-4,977	3,500	-0,1803	-1000000	-1000000	-1000000
219,60	-5,005	3,509	-0,1810	-1000000	-1000000	-1000000
220,20	-5,033	3,519	-0,1806	-1000000	-1000000	-1000000
220,80	-5,061	3,530	-0,1792	-1000000	-1000000	-1000000
221,40	-5,089	3,540	-0,1784	-1000000	-1000000	-1000000
222,00	-5,118	3,549	-0,1781	-1000000	-1000000	-1000000
222,60	-5,142	3,560	-0,1756	-1000000	-1000000	-1000000
223,20	-5,170	3,569	-0,1769	-1000000	-1000000	-1000000
223,80	-5,197	3,580	-0,1776	-1000000	-1000000	-1000000
224,40	-5,225	3,589	-0,1789	-1000000	-1000000	-1000000
225,00	-5,250	3,599	-0,1770	-1000000	-1000000	-1000000
225,60	-5,279	3,610	-0,1789	-1000000	-1000000	-1000000
226,20	-5,307	3,620	-0,1790	-1000000	-1000000	-1000000
226,80	-5,335	3,630	-0,1789	-1000000	-1000000	-1000000
227,40	-5,363	3,640	-0,1789	-1000000	-1000000	-1000000
228,00	-5,388	3,650	-0,1756	-1000000	-1000000	-1000000
228,60	-5,415	3,659	-0,1772	-1000000	-1000000	-1000000
229,20	-5,443	3,670	-0,1780	-1000000	-1000000	-1000000
229,80	-5,470	3,679	-0,1774	-1000000	-1000000	-1000000
230,40	-5,466	3,690	-0,1491	-1000000	-1000000	-1000000
231,00	-5,490	3,700	-0,1614	-1000000	-1000000	-1000000
231,60	-5,514	3,710	-0,1677	-1000000	-1000000	-1000000
232,20	-5,541	3,720	-0,1710	-1000000	-1000000	-1000000
232,80	-5,568	3,731	-0,1738	-1000000	-1000000	-1000000
233,40	-5,591	3,740	-0,1758	-1000000	-1000000	-1000000
234,00	-5,617	3,750	-0,1787	-1000000	-1000000	-1000000
234,60	-5,645	3,760	-0,1804	-1000000	-1000000	-1000000
235,20	-5,668	3,770	-0,1785	-1000000	-1000000	-1000000
235,80	-5,696	3,780	-0,1815	-1000000	-1000000	-1000000
236,40	-5,724	3,789	-0,1824	-1000000	-1000000	-1000000
237,00	-5,752	3,800	-0,1831	-1000000	-1000000	-1000000
237,60	-5,779	3,809	-0,1840	-1000000	-1000000	-1000000
238,20	-5,802	3,820	-0,1839	-1000000	-1000000	-1000000
238,80	-5,830	3,829	-0,1884	-1000000	-1000000	-1000000
239,40	-5,858	3,840	-0,1884	-1000000	-1000000	-1000000
240,00	-5,885	3,850	-0,1874	-1000000	-1000000	-1000000
240,60	-5,912	3,860	-0,1868	-1000000	-1000000	-1000000
241,20	-5,940	3,870	-0,1871	-1000000	-1000000	-1000000
241,80	-5,963	3,880	-0,1834	-1000000	-1000000	-1000000
242,40	-5,992	3,890	-0,1850	-1000000	-1000000	-1000000
243,00	-6,020	3,900	-0,1848	-1000000	-1000000	-1000000
243,60	-6,048	3,910	-0,1849	-1000000	-1000000	-1000000
244,20	-6,074	3,919	-0,1830	-1000000	-1000000	-1000000
244,80	-6,103	3,930	-0,1819	-1000000	-1000000	-1000000
245,40	-6,131	3,940	-0,1801	-1000000	-1000000	-1000000
246,00	-6,159	3,950	-0,1803	-1000000	-1000000	-1000000
246,60	-6,184	3,960	-0,1803	-1000000	-1000000	-1000000
247,20	-6,205	3,969	-0,1723	-1000000	-1000000	-1000000
247,80	-6,233	3,979	-0,1751	-1000000	-1000000	-1000000
248,40	-6,262	3,988	-0,1760	-1000000	-1000000	-1000000
249,00	-6,290	3,999	-0,1756	-1000000	-1000000	-1000000
249,60	-6,318	4,009	-0,1742	-1000000	-1000000	-1000000
250,20	-6,345	4,019	-0,1727	-1000000	-1000000	-1000000
250,80	-6,373	4,029	-0,1706	-1000000	-1000000	-1000000
251,40	-6,398	4,040	-0,1681	-1000000	-1000000	-1000000
252,00	-6,416	4,049	-0,1615	-1000000	-1000000	-1000000
252,60	-6,441	4,059	-0,1636	-1000000	-1000000	-1000000
253,20	-6,467	4,069	-0,1636	-1000000	-1000000	-1000000
253,80	-6,494	4,079	-0,1646	-1000000	-1000000	-1000000
254,40	-6,519	4,089	-0,1645	-1000000	-1000000	-1000000
255,00	-6,546	4,099	-0,1658	-1000000	-1000000	-1000000
255,60	-6,573	4,110	-0,1670	-1000000	-1000000	-1000000
256,20	-6,597	4,120	-0,1656	-1000000	-1000000	-1000000
256,80	-6,624	4,130	-0,1671	-1000000	-1000000	-1000000
257,40	-6,651	4,139	-0,1671	-1000000	-1000000	-1000000
258,00	-6,678	4,150	-0,1678	-1000000	-1000000	-1000000
258,60	-6,705	4,159	-0,1690	-1000000	-1000000	-1000000
259,20	-6,731	4,170	-0,1700	-1000000	-1000000	-1000000
259,80	-6,751	4,180	-0,1632	-1000000	-1000000	-1000000
260,40	-6,777	4,189	-0,1691	-1000000	-1000000	-1000000
261,00	-6,804	4,200	-0,1712	-1000000	-1000000	-1000000
261,60	-6,832	4,210	-0,1717	-1000000	-1000000	-1000000
262,20	-6,858	4,220	-0,1721	-1000000	-1000000	-1000000
262,80	-6,884	4,230	-0,1724	-1000000	-1000000	-1000000
263,40	-6,911	4,240	-0,1711	-1000000	-1000000	-1000000
264,00	-6,931	4,250	-0,1671	-1000000	-1000000	-1000000
264,60	-6,959	4,260	-0,1694	-1000000	-1000000	-1000000
265,20	-6,986	4,270	-0,1701	-1000000	-1000000	-1000000
265,80	-7,012	4,280	-0,1694	-1000000	-1000000	-1000000
266,40	-7,039	4,290	-0,1709	-1000000	-1000000	-1000000
267,00	-7,067	4,300	-0,1730	-1000000	-1000000	-1000000
267,60	-7,094	4,310	-0,1731	-1000000	-1000000	-1000000
268,20	-7,122	4,320	-0,1728	-1000000	-1000000	-1000000
268,80	-7,143	4,330	-0,1685	-1000000	-1000000	-1000000
269,40	-7,170	4,341	-0,1698	-1000000	-1000000	-1000000
270,00	-7,197	4,351	-0,1706	-1000000	-1000000	-1000000
270,60	-7,224	4,360	-0,1705	-1000000	-1000000	-1000000
271,20	-7,251	4,370	-0,1711	-1000000	-1000000	-1000000
271,80	-7,278	4,380	-0,1725	-1000000	-1000000	-1000000
272,40	-7,304	4,391	-0,1735	-1000000	-1000000	-1000000
273,00	-7,323	4,400	-0,1665	-1000000	-1000000	-1000000
273,60	-7,352	4,411	-0,1737	-1000000	-1000000	-1000000
274,20	-7,379	4,420	-0,1770	-1000000	-1000000	-1000000
274,80	-7,408	4,430	-0,1784	-1000000	-1000000	-1000000
275,40	-7,432	4,440	-0,1779	-1000000	-1000000	-1000000
276,00	-7,458	4,450	-0,1784	-1000000	-1000000	-1000000
276,60	-7,486	4,460	-0,1789	-1000000	-1000000	-1000000
277,20	-7,509	4,470	-0,1755	-1000000	-1000000	-1000000
277,80	-7,531	4,481	-0,1779	-1000000	-1000000	-1000000
278,40	-7,559	4,490	-0,1842	-1000000	-1000000	-1000000
279,00	-7,586	4,501	-0,1895	-1000000	-1000000	-1000000
279,60	-7,613	4,510	-0,1973	-1000000	-1000000	-1000000
280,20	-7,639	4,520	-0,2016	-1000000	-1000000	-1000000
280,80	-7,666	4,530	-0,2050	-1000000	-1000000	-1000000
281,40	-7,684	4,540	-0,2019	-1000000	-1000000	-1000000
282,00	-7,713	4,550	-0,2083	-1000000	-1000000	-1000000
282,60	-7,696	4,560	-0,1252	-1000000	-1000000	-1000000
283,20	-7,652	4,570	-0,05816	-1000000	-1000000	-1000000
283,80	-7,669	4,580	-0,08019	-1000000	-1000000	-1000000
284,40	-7,690	4,590	-0,1055	-1000000	-1000000	-1000000
285,00	-7,717	4,600	-0,1355	-1000000	-1000000	-1000000
285,60	-7,741	4,611	-0,1592	-1000000	-1000000	-1000000
286,20	-7,767	4,620	-0,1828	-1000000	-1000000	-1000000
286,80	-7,793	4,630	-0,1995	-1000000	-1000000	-1000000
287,40	-7,813	4,640	-0,2077	-1000000	-1000000	-1000000
288,00	-7,836	4,651	-0,2164	-1000000	-1000000	-1000000
288,60	-7,863	4,660	-0,2265	-1000000	-1000000	-1000000
289,20	-7,890	4,671	-0,2314	-1000000	-1000000	-1000000
289,80	-7,915	4,681	-0,2313	-1000000	-1000000	-1000000
290,40	-7,942	4,691	-0,2332	-1000000	-1000000	-1000000
291,00	-7,965	4,700	-0,2275	-1000000	-1000000	-1000000
291,60	-7,988	4,710	-0,2253	-1000000	-1000000	-1000000
292,20	-8,017	4,721	-0,2253	-1000000	-1000000	-1000000
292,80	-8,043	4,730	-0,2171	-1000000	-1000000	-1000000
293,40	-7,945	4,741	-0,1394	-1000000	-1000000	-1000000
294,00	-7,677	4,750	-0,06452	-1000000	-1000000	-1000000
294,60	-7,712	4,760	-0,09909	-1000000	-1000000	-1000000
295,20	-7,747	4,770	-0,1234	-1000000	-1000000	-1000000
295,80	-7,780	4,780	-0,1416	-1000000	-1000000	-1000000
296,40	-7,813	4,790	-0,1550	-1000000	-1000000	-1000000
297,00	-7,847	4,799	-0,1628	-1000000	-1000000	-1000000
297,60	-7,880	4,810	-0,1658	-1000000	-1000000	-1000000
298,20	-7,911	4,820	-0,1636	-1000000	-1000000	-1000000
298,80	-7,943	4,831	-0,1615	-1000000	-1000000	-1000000
299,40	-7,975	4,840	-0,1587	-1000000	-1000000	-1000000
300,00	-8,003	4,851	-0,1531	-1000000	-1000000	-1000000
300,60	-8,035	4,861	-0,1523	-1000000	-1000000	-1000000
301,20	-8,067	4,871	-0,1504	-1000000	-1000000	-1000000
301,80	-8,097	4,880	-0,1485	-1000000	-1000000	-1000000
302,40	-8,128	4,891	-0,1465	-1000000	-1000000	-1000000
303,00	-8,157	4,900	-0,1451	-1000000	-1000000	-1000000
303,60	-8,184	4,910	-0,1424	-1000000	-1000000	-1000000
304,20	-8,215	4,920	-0,1427	-1000000	-1000000	-1000000
304,80	-8,244	4,930	-0,1427	-1000000	-1000000	-1000000
305,40	-8,273	4,941	-0,1436	-1000000	-1000000	-1000000
306,00	-8,304	4,949	-0,1462	-1000000	-1000000	-1000000
306,60	-8,331	4,961	-0,1451	-1000000	-1000000	-1000000
307,20	-8,359	4,970	-0,1450	-1000000	-1000000	-1000000
307,80	-8,385	4,980	-0,1430	-1000000	-1000000	-1000000
308,40	-8,414	4,990	-0,1448	-1000000	-1000000	-1000000
309,00	-8,443	5,000	-0,1455	-1000000	-1000000	-1000000
309,60	-8,473	5,010	-0,1460	-1000000	-1000000	-1000000
310,20	-8,502	5,019	-0,1460	-1000000	-1000000	-1000000
310,80	-8,532	5,030	-0,1471	-1000000	-1000000	-1000000
311,40	-8,560	5,040	-0,1451	-1000000	-1000000	-1000000
312,00	-8,577	5,050	-0,1429	-1000000	-1000000	-1000000
312,60	-8,607	5,060	-0,1478	-1000000	-1000000	-1000000
313,20	-8,637	5,070	-0,1481	-1000000	-1000000	-1000000
313,80	-8,662	5,080	-0,1462	-1000000	-1000000	-1000000
314,40	-8,692	5,091	-0,1469	-1000000	-1000000	-1000000
315,00	-8,723	5,100	-0,1468	-1000000	-1000000	-1000000
315,60	-8,750	5,110	-0,1442	-1000000	-1000000	-1000000
316,20	-8,778	5,120	-0,1434	-1000000	-1000000	-1000000
316,80	-8,803	5,130	-0,1420	-1000000	-1000000	-1000000
317,40	-8,831	5,140	-0,1424	-1000000	-1000000	-1000000
318,00	-8,860	5,150	-0,1440	-1000000	-1000000	-1000000
318,60	-8,889	5,161	-0,1447	-1000000	-1000000	-1000000
319,20	-8,916	5,170	-0,1424	-1000000	-1000000	-1000000
319,80	-8,944	5,181	-0,1452	-1000000	-1000000	-1000000
320,40	-8,974	5,190	-0,1469	-1000000	-1000000	-1000000
321,00	-8,984	5,200	-0,1379	-1000000	-1000000	-1000000
321,60	-9,014	5,209	-0,1469	-1000000	-1000000	-1000000
322,20	-9,043	5,220	-0,1508	-1000000	-1000000	-1000000
322,80	-9,075	5,230	-0,1498	-1000000	-1000000	-1000000
323,40	-9,103	5,240	-0,1514	-1000000	-1000000	-1000000
324,00	-9,132	5,250	-0,1515	-1000000	-1000000	-1000000
324,60	-9,155	5,260	-0,1481	-1000000	-1000000	-1000000
325,20	-9,183	5,270	-0,1502	-1000000	-1000000	-1000000
325,80	-9,212	5,280	-0,1500	-1000000	-1000000	-1000000
326,40	-9,239	5,290	-0,1491	-1000000	-1000000	-1000000
327,00	-9,269	5,300	-0,1495	-1000000	-1000000	-1000000
327,60	-9,288	5,310	-0,1393	-1000000	-1000000	-1000000
328,20	-9,316	5,319	-0,1442	-1000000	-1000000	-1000000
328,80	-9,343	5,330	-0,1456	-1000000	-1000000	-1000000
329,40	-9,371	5,344	-0,1466	-1000000	-1000000	-1000000
330,00	-9,399	5,354	-0,1434	-1000000	-1000000	-1000000
330,60	-9,423	5,363	-0,1385	-1000000	-1000000	-1000000
331,20	-9,449	5,373	-0,1393	-1000000	-1000000	-1000000
331,80	-9,468	5,384	-0,1318	-1000000	-1000000	-1000000
332,40	-9,497	5,394	-0,1392	-1000000	-1000000	-1000000
333,00	-9,526	5,404	-0,1422	-1000000	-1000000	-1000000
333,60	-9,553	5,414	-0,1430	-1000000	-1000000	-1000000
334,20	-9,581	5,424	-0,1438	-1000000	-1000000	-1000000
334,80	-9,604	5,434	-0,1387	-1000000	-1000000	-1000000
335,40	-9,627	5,444	-0,1393	-1000000	-1000000	-1000000
336,00	-9,655	5,454	-0,1414	-1000000	-1000000	-1000000
336,60	-9,680	5,464	-0,1394	-1000000	-1000000	-1000000
337,20	-9,705	5,474	-0,1365	-1000000	-1000000	-1000000
337,80	-9,732	5,483	-0,1382	-1000000	-1000000	-1000000
338,40	-9,759	5,494	-0,1379	-1000000	-1000000	-1000000
339,00	-9,786	5,504	-0,1374	-1000000	-1000000	-1000000
339,60	-9,803	5,514	-0,1291	-1000000	-1000000	-1000000
340,20	-9,831	5,524	-0,1354	-1000000	-1000000	-1000000
340,80	-9,859	5,533	-0,1369	-1000000	-1000000	-1000000
341,40	-9,885	5,544	-0,1361	-1000000	-1000000	-1000000
342,00	-9,913	5,554	-0,1367	-1000000	-1000000	-1000000
342,60	-9,934	5,563	-0,1329	-1000000	-1000000	-1000000
343,20	-9,960	5,574	-0,1344	-1000000	-1000000	-1000000
343,80	-9,987	5,583	-0,1351	-1000000	-1000000	-1000000
344,40	-10,01	5,594	-0,1366	-1000000	-1000000	-1000000
345,00	-10,04	5,604	-0,1348	-1000000	-1000000	-1000000
345,60	-10,06	5,615	-0,1335	-1000000	-1000000	-1000000
346,20	-10,09	5,624	-0,1325	-1000000	-1000000	-1000000
346,80	-10,12	5,634	-0,1328	-1000000	-1000000	-1000000
347,40	-10,14	5,644	-0,1309	-1000000	-1000000	-1000000
348,00	-10,17	5,654	-0,1337	-1000000	-1000000	-1000000
348,60	-10,19	5,665	-0,1315	-1000000	-1000000	-1000000
349,20	-10,21	5,674	-0,1321	-1000000	-1000000	-1000000
349,80	-10,24	5,684	-0,1353	-1000000	-1000000	-1000000
350,40	-10,27	5,694	-0,1371	-1000000	-1000000	-1000000
351,00	-10,29	5,704	-0,1361	-1000000	-1000000	-1000000
351,60	-10,31	5,713	-0,1293	-1000000	-1000000	-1000000
352,20	-10,34	5,724	-0,1341	-1000000	-1000000	-1000000
352,80	-10,37	5,734	-0,1350	-1000000	-1000000	-1000000
353,40	-10,39	5,744	-0,1309	-1000000	-1000000	-1000000
354,00	-10,41	5,754	-0,1346	-1000000	-1000000	-1000000
354,60	-10,44	5,764	-0,1365	-1000000	-1000000	-1000000
355,20	-10,47	5,774	-0,1350	-1000000	-1000000	-1000000
355,80	-10,49	5,784	-0,1288	-1000000	-1000000	-1000000
356,40	-10,52	5,794	-0,1342	-1000000	-1000000	-1000000
357,00	-10,54	5,804	-0,1340	-1000000	-1000000	-1000000
357,60	-10,57	5,814	-0,1358	-1000000	-1000000	-1000000
358,20	-10,59	5,824	-0,1332	-1000000	-1000000	-1000000
358,80	-10,60	5,828	-0,1197	-1000000	-1000000	-1000000
359,40	-10,60	5,828	-0,1029	-1000000	-1000000	-1000000
360,00	-10,59	5,829	-0,09153	-1000000	-1000000	-1000000
360,60	-10,59	5,828	-0,08382	-1000000	-1000000	-1000000
361,20	-10,58	5,828	-0,07251	-1000000	-1000000	-1000000
361,80	-10,58	5,828	-0,03816	-1000000	-1000000	-1000000
362,40	-10,57	5,828	0,00782	-1000000	-1000000	-1000000
363,00	-10,57	5,828	-0,01910	-1000000	-1000000	-1000000
363,60	-10,56	5,828	0,01897	-1000000	-1000000	-1000000
364,20	-10,56	5,828	-0,01671	-1000000	-1000000	-1000000
364,80	-10,56	5,828	0,2557	-1000000	-1000000	-1000000
365,40	-10,56	5,828	0,06687	-1000000	-1000000	-1000000
366,00	-10,55	5,828	-0,1178	-1000000	-1000000	-1000000
366,60	-10,55	5,828	-0,07651	-1000000	-1000000	-1000000
367,20	-10,55	5,828	-0,03890	-1000000	-1000000	-1000000
367,80	-10,55	5,828	-0,03123	-1000000	-1000000	-1000000
368,40	-10,54	5,828	-0,1044	-1000000	-1000000	-1000000
369,00	-10,54	5,828	-0,1742	-1000000	-1000000	-1000000
369,60	-10,54	5,828	-0,2540	-1000000	-1000000	-1000000
370,20	-10,54	5,828	2,704	-1000000	-1000000	-1000000
370,80	-10,53	5,829	0,1022	-1000000	-1000000	-1000000
371,40	-10,53	5,828	-0,3904	-1000000	-1000000	-1000000
372,00	-10,53	5,828	-0,2762	-1000000	-1000000	-1000000
372,60	-10,53	5,828	-0,2035	-1000000	-1000000	-1000000
373,20	-10,52	5,828	-0,2034	-1000000	-1000000	-1000000
373,80	-10,52	5,828	-0,2035	-1000000	-1000000	-1000000
374,40	-10,52	5,828	-0,2035	-1000000	-1000000	-1000000
375,00	-10,51	5,828	-0,2034	-1000000	-1000000	-1000000
375,60	-10,51	5,828	-0,2034	-1000000	-1000000	-1000000
376,20	-10,51	5,828	-0,2034	-1000000	-1000000	-1000000
376,80	-10,51	5,828	-0,2034	-1000000	-1000000	-1000000
377,40	-10,50	5,828	-0,2034	-1000000	-1000000	-1000000
378,00	-10,51	5,832	-0,2035	-1000000	-1000000	-1000000
378,60	-10,55	5,842	-0,2035	-1000000	-1000000	-1000000
379,20	-10,58	5,852	-0,2036	-1000000	-1000000	-1000000
379,80	-10,61	5,862	-0,2036	-1000000	-1000000	-1000000
380,40	-10,64	5,872	-0,2036	-1000000	-1000000	-1000000
381,00	-10,67	5,882	-0,2035	-1000000	-1000000	-1000000
381,60	-10,66	5,892	-0,2036	-1000000	-1000000	-1000000
382,20	-10,59	5,902	-0,2037	-1000000	-1000000	-1000000
382,80	-10,63	5,912	-0,2037	-1000000	-1000000	-1000000
383,40	-10,66	5,921	-0,2037	-1000000	-1000000	-1000000
384,00	-10,70	5,932	-0,2036	-1000000	-1000000	-1000000
384,60	-10,73	5,942	-0,2037	-1000000	-1000000	-1000000
385,20	-10,76	5,951	-0,2038	-1000000	-1000000	-1000000
385,80	-10,80	5,962	-0,2037	-1000000	-1000000	-1000000
386,40	-10,83	5,973	-0,2037	-1000000	-1000000	-1000000
387,00	-10,86	5,983	-0,2038	-1000000	-1000000	-1000000
387,60	-10,89	5,993	-0,2038	-1000000	-1000000	-1000000
388,20	-10,92	6,003	-0,2037	-1000000	-1000000	-1000000
388,80	-10,95	6,012	-0,2038	-1000000	-1000000	-1000000
389,40	-10,98	6,023	-0,2038	-1000000	-1000000	-1000000
390,00	-11,01	6,032	-0,2038	-1000000	-1000000	-1000000
390,60	-11,04	6,043	-0,2039	-1000000	-1000000	-1000000
391,20	-11,07	6,051	-0,2039	-1000000	-1000000	-1000000
391,80	-11,10	6,062	-0,2039	-1000000	-1000000	-1000000
392,40	-11,13	6,071	-0,2039	-1000000	-1000000	-1000000
393,00	-11,16	6,081	-0,2039	-1000000	-1000000	-1000000
393,60	-11,19	6,091	-0,2039	-1000000	-1000000	-1000000
394,20	-11,22	6,102	-0,2040	-1000000	-1000000	-1000000
394,80	-11,24	6,112	-0,2038	-1000000	-1000000	-1000000
395,40	-11,26	6,122	-0,2039	-1000000	-1000000	-1000000
396,00	-11,29	6,131	-0,2039	-1000000	-1000000	-1000000
396,60	-11,32	6,141	-0,2039	-1000000	-1000000	-1000000
397,20	-11,35	6,152	-0,2039	-1000000	-1000000	-1000000
397,80	-11,38	6,161	-0,2039	-1000000	-1000000	-1000000
398,40	-11,41	6,172	-0,2040	-1000000	-1000000	-1000000
399,00	-11,43	6,182	-0,2040	-1000000	-1000000	-1000000
399,60	-11,46	6,192	-0,2039	-1000000	-1000000	-1000000
400,20	-11,48	6,202	-0,2040	-1000000	-1000000	-1000000
400,80	-11,51	6,212	-0,2040	-1000000	-1000000	-1000000
401,40	-11,54	6,222	-0,2041	-1000000	-1000000	-1000000
402,00	-11,56	6,231	-0,2040	-1000000	-1000000	-1000000
402,60	-11,59	6,242	-0,2041	-1000000	-1000000	-1000000
403,20	-11,62	6,251	-0,2040	-1000000	-1000000	-1000000
403,80	-11,64	6,262	-0,2041	-1000000	-1000000	-1000000
404,40	-11,67	6,271	-0,2041	-1000000	-1000000	-1000000
405,00	-11,70	6,282	-0,2041	-1000000	-1000000	-1000000
405,60	-11,72	6,291	-0,2041	-1000000	-1000000	-1000000
406,20	-11,75	6,302	-0,2042	-1000000	-1000000	-1000000
406,80	-11,77	6,311	-0,2041	-1000000	-1000000	-1000000
407,40	-11,80	6,321	-0,2042	-1000000	-1000000	-1000000
408,00	-11,82	6,331	-0,2042	-1000000	-1000000	-1000000
408,60	-11,85	6,341	-0,2041	-1000000	-1000000	-1000000
409,20	-11,88	6,352	-0,2041	-1000000	-1000000	-1000000
409,80	-11,90	6,361	-0,2043	-1000000	-1000000	-1000000
410,40	-11,93	6,372	-0,2042	-1000000	-1000000	-1000000
411,00	-11,95	6,382	-0,2042	-1000000	-1000000	-1000000
411,60	-11,98	6,392	-0,2041	-1000000	-1000000	-1000000
412,20	-12,01	6,401	-0,2042	-1000000	-1000000	-1000000
412,80	-12,04	6,411	-0,2043	-1000000	-1000000	-1000000
413,40	-12,06	6,422	-0,2043	-1000000	-1000000	-1000000
414,00	-12,08	6,431	-0,2042	-1000000	-1000000	-1000000
414,60	-12,11	6,441	-0,2043	-1000000	-1000000	-1000000
415,20	-12,14	6,451	-0,2041	-1000000	-1000000	-1000000
415,80	-12,16	6,462	-0,2042	-1000000	-1000000	-1000000
416,40	-12,18	6,471	-0,2042	-1000000	-1000000	-1000000
417,00	-12,21	6,482	-0,2043	-1000000	-1000000	-1000000
417,60	-12,24	6,491	-0,2042	-1000000	-1000000	-1000000
418,20	-12,26	6,502	-0,2043	-1000000	-1000000	-1000000
418,80	-12,29	6,511	-0,2043	-1000000	-1000000	-1000000
419,40	-12,31	6,522	-0,2044	-1000000	-1000000	-1000000
420,00	-12,34	6,531	-0,2043	-1000000	-1000000	-1000000
420,60	-12,36	6,541	-0,2044	-1000000	-1000000	-1000000
421,20	-12,39	6,551	-0,2044	-1000000	-1000000	-1000000
421,80	-12,41	6,561	-0,2045	-1000000	-1000000	-1000000
422,40	-12,44	6,572	-0,2044	-1000000	-1000000	-1000000
423,00	-12,46	6,581	-0,2044	-1000000	-1000000	-1000000
423,60	-12,49	6,592	-0,2043	-1000000	-1000000	-1000000
424,20	-12,51	6,601	-0,2045	-1000000	-1000000	-1000000
424,80	-12,54	6,612	-0,2045	-1000000	-1000000	-1000000
425,40	-12,56	6,621	-0,2045	-1000000	-1000000	-1000000
426,00	-12,59	6,631	-0,2045	-1000000	-1000000	-1000000
426,60	-12,62	6,641	-0,2044	-1000000	-1000000	-1000000
427,20	-12,64	6,651	-0,2045	-1000000	-1000000	-1000000
427,80	-12,67	6,661	-0,2044	-1000000	-1000000	-1000000
428,40	-12,69	6,671	-0,2045	-1000000	-1000000	-1000000
429,00	-12,71	6,681	-0,2044	-1000000	-1000000	-1000000
429,60	-12,73	6,691	-0,2045	-1000000	-1000000	-1000000
430,20	-12,76	6,701	-0,2046	-1000000	-1000000	-1000000
430,80	-12,79	6,711	-0,2044	-1000000	-1000000	-1000000
431,40	-12,81	6,721	-0,2045	-1000000	-1000000	-1000000
432,00	-12,84	6,731	-0,2046	-1000000	-1000000	-1000000
432,60	-12,86	6,741	-0,2045	-1000000	-1000000	-1000000
433,20	-12,89	6,751	-0,2045	-1000000	-1000000	-1000000
433,80	-12,91	6,761	-0,2046	-1000000	-1000000	-1000000
434,40	-12,93	6,771	-0,2045	-1000000	-1000000	-1000000
435,00	-12,96	6,781	-0,2047	-1000000	-1000000	-1000000
435,60	-12,99	6,791	-0,2046	-1000000	-1000000	-1000000
436,20	-13,01	6,801	-0,2046	-1000000	-1000000	-1000000
436,80	-13,04	6,811	-0,2046	-1000000	-1000000	-1000000
437,40	-13,06	6,821	-0,2046	-1000000	-1000000	-1000000
438,00	-13,09	6,830	-0,2046	-1000000	-1000000	-1000000
438,60	-13,11	6,841	-0,2045	-1000000	-1000000	-1000000
439,20	-13,13	6,851	-0,2045	-1000000	-1000000	-1000000
439,80	-13,15	6,861	-0,2046	-1000000	-1000000	-1000000
440,40	-13,18	6,871	-0,2047	-1000000	-1000000	-1000000
441,00	-13,21	6,881	-0,2048	-1000000	-1000000	-1000000
441,60	-13,23	6,891	-0,2046	-1000000	-1000000	-1000000
442,20	-13,26	6,901	-0,2046	-1000000	-1000000	-1000000
442,80	-13,28	6,911	-0,2047	-1000000	-1000000	-1000000
443,40	-13,31	6,922	-0,2048	-1000000	-1000000	-1000000
444,00	-13,34	6,931	-0,2046	-1000000	-1000000	-1000000
444,60	-13,36	6,941	-0,2047	-1000000	-1000000	-1000000
445,20	-13,38	6,951	-0,2048	-1000000	-1000000	-1000000
445,80	-13,41	6,961	-0,2047	-1000000	-1000000	-1000000
446,40	-13,43	6,970	-0,2047	-1000000	-1000000	-1000000
447,00	-13,46	6,981	-0,2047	-1000000	-1000000	-1000000
447,60	-13,48	6,991	-0,2048	-1000000	-1000000	-1000000
448,20	-13,51	7,001	-0,2047	-1000000	-1000000	-1000000
448,80	-13,54	7,011	-0,2048	-1000000	-1000000	-1000000
449,40	-13,56	7,021	-0,2048	-1000000	-1000000	-1000000
450,00	-13,59	7,030	-0,2048	-1000000	-1000000	-1000000
450,60	-13,61	7,041	-0,2048	-1000000	-1000000	-1000000
451,20	-13,64	7,050	-0,2047	-1000000	-1000000	-1000000
451,80	-13,66	7,060	-0,2048	-1000000	-1000000	-1000000
452,40	-13,68	7,071	-0,2047	-1000000	-1000000	-1000000
453,00	-13,71	7,080	-0,2048	-1000000	-1000000	-1000000
453,60	-13,74	7,090	-0,2047	-1000000	-1000000	-1000000
454,20	-13,76	7,100	-0,2048	-1000000	-1000000	-1000000
454,80	-13,79	7,110	-0,2047	-1000000	-1000000	-1000000
455,40	-13,81	7,120	-0,2049	-1000000	-1000000	-1000000
456,00	-13,84	7,130	-0,2049	-1000000	-1000000	-1000000
456,60	-13,86	7,140	-0,2048	-1000000	-1000000	-1000000
457,20	-13,88	7,150	-0,2048	-1000000	-1000000	-1000000
457,80	-13,91	7,160	-0,2049	-1000000	-1000000	-1000000
458,40	-13,94	7,170	-0,2049	-1000000	-1000000	-1000000
459,00	-13,96	7,180	-0,2049	-1000000	-1000000	-1000000
459,60	-13,99	7,189	-0,2049	-1000000	-1000000	-1000000
460,20	-14,01	7,200	-0,2050	-1000000	-1000000	-1000000
460,80	-14,04	7,210	-0,2050	-1000000	-1000000	-1000000
461,40	-14,06	7,220	-0,2050	-1000000	-1000000	-1000000
462,00	-14,08	7,229	-0,2049	-1000000	-1000000	-1000000
462,60	-14,11	7,240	-0,2050	-1000000	-1000000	-1000000
463,20	-14,13	7,249	-0,2050	-1000000	-1000000	-1000000
463,80	-14,16	7,259	-0,2051	-1000000	-1000000	-1000000
464,40	-14,18	7,269	-0,2050	-1000000	-1000000	-1000000
465,00	-14,20	7,279	-0,2050	-1000000	-1000000	-1000000
465,60	-14,23	7,289	-0,2049	-1000000	-1000000	-1000000
466,20	-14,25	7,299	-0,2050	-1000000	-1000000	-1000000
466,80	-14,28	7,309	-0,2050	-1000000	-1000000	-1000000
467,40	-14,30	7,319	-0,2051	-1000000	-1000000	-1000000
468,00	-14,33	7,330	-0,2050	-1000000	-1000000	-1000000
468,60	-14,35	7,339	-0,2051	-1000000	-1000000	-1000000
469,20	-14,37	7,350	-0,2050	-1000000	-1000000	-1000000
469,80	-14,40	7,360	-0,2050	-1000000	-1000000	-1000000
470,40	-14,42	7,369	-0,2051	-1000000	-1000000	-1000000
471,00	-14,44	7,379	-0,2050	-1000000	-1000000	-1000000
471,60	-14,47	7,389	-0,2050	-1000000	-1000000	-1000000
472,20	-14,49	7,399	-0,2050	-1000000	-1000000	-1000000
472,80	-14,51	7,409	-0,2050	-1000000	-1000000	-1000000
473,40	-14,54	7,420	-0,2051	-1000000	-1000000	-1000000
474,00	-14,56	7,429	-0,2051	-1000000	-1000000	-1000000
474,60	-14,58	7,439	-0,2051	-1000000	-1000000	-1000000
475,20	-0,00887	7,448	-0,1906	-1000000	-1000000	-1000000
475,80	0,00248	7,459	-0,1904	-1000000	-1000000	-1000000
476,40	0,00224	7,468	-0,1903	-1000000	-1000000	-1000000
477,00	-0,00075	7,478	-0,1903	-1000000	-1000000	-1000000
477,60	-0,00136	7,489	-0,1901	-1000000	-1000000	-1000000
478,20	-0,00141	7,498	-0,1900	-1000000	-1000000	-1000000
478,80	-0,00152	7,509	-0,1901	-1000000	-1000000	-1000000
479,40	-0,00338	7,519	-0,1900	-1000000	-1000000	-1000000
480,00	-0,00487	7,528	-0,1900	-1000000	-1000000	-1000000
480,60	-0,00495	7,538	-0,1899	-1000000	-1000000	-1000000
481,20	-0,00499	7,549	-0,1899	-1000000	-1000000	-1000000
481,80	-0,00556	7,558	-0,1899	-1000000	-1000000	-1000000
481,90	-0,00549	7,560	-0,1899	-1000000	-1000000	-1000000